ACCELEROMETER X (m/s²),ACCELEROMETER Y (m/s²),ACCELEROMETER Z (m/s²),GRAVITY X (m/s²),GRAVITY Y (m/s²),GRAVITY Z (m/s²),LINEAR ACCELERATION X (m/s²),LINEAR ACCELERATION Y (m/s²),LINEAR ACCELERATION Z (m/s²),GYROSCOPE X (rad/s),GYROSCOPE Y (rad/s),GYROSCOPE Z (rad/s),LIGHT (lux),MAGNETIC FIELD X (μT),MAGNETIC FIELD Y (μT),MAGNETIC FIELD Z (μT),ORIENTATION Z (azimuth °),ORIENTATION X (pitch °),ORIENTATION Y (roll °),PROXIMITY (i),ATMOSPHERIC PRESSURE (hPa),SOUND LEVEL (dB),LOCATION Latitude : ,LOCATION Longitude : ,LOCATION Altitude ( m),LOCATION Altitude-google ( m),LOCATION Altitude-atmospheric pressure ( m),LOCATION Speed ( Kmh),LOCATION Accuracy ( m),LOCATION ORIENTATION (°),Satellites in range,Time since start in ms ,YYYY-MO-DD HH-MI-SS_SSS
-0.0936,0.2739,9.9567,-0.0924,0.2615,9.806,-0.0012,0.0124,0.1507,-0.0037,-0.0075,0.0112,58.0,-23.6,14.0,-38.4,58.37,-1.53,0.54,3.1,960.72,46.257,43.438263,-96.689926,1311.61,NaN,,,58.50968,,0 / 19,23,2018-06-19 15:18:24:886
-0.0906,0.2786,9.9666,-0.0924,0.2609,9.806,0.0018,0.0177,0.1606,-0.0016,-0.0067,0.0101,60.0,-23.5,13.5,-38.45,57.29,-1.52,0.54,3.1,960.79,46.257,43.438263,-96.689926,1311.61,NaN,,,58.50968,,0 / 19,125,2018-06-19 15:18:24:988
-0.0888,0.2816,9.9787,-0.0921,0.2627,9.806,0.0033,0.0189,0.1727,-8.0E-4,-0.0059,0.0115,60.0,-23.3,13.15,-38.55,59.01,-1.53,0.54,3.1,960.75,46.257,43.438263,-96.689926,1311.61,NaN,,,58.50968,,0 / 19,223,2018-06-19 15:18:25:086
-0.0946,0.2756,9.9666,-0.0921,0.2626,9.806,-0.0025,0.013,0.1606,-0.0032,-0.0061,0.0112,61.0,-23.3,12.85,-38.45,59.05,-1.53,0.54,3.1,960.72,46.257,43.438263,-96.689926,1311.61,NaN,,,58.50968,,0 / 19,323,2018-06-19 15:18:25:186
-0.0979,0.2805,9.9714,-0.0925,0.2626,9.806,-7.0E-4,0.0204,0.1608,8.0E-4,-0.0075,0.0112,60.0,-23.1,12.6,-38.55,59.01,-1.53,0.54,3.1,960.72,41.308,43.438263,-96.689926,1311.61,NaN,,,58.50968,,0 / 19,422,2018-06-19 15:18:25:285
-0.1022,0.2807,9.9678,-0.0928,0.2627,9.806,-0.0094,0.018,0.1618,-8.0E-4,-0.0072,0.0101,62.0,-22.85,12.35,-38.4,60.89,-1.53,0.54,3.1,960.66,41.308,43.438263,-96.689926,1311.61,NaN,,,58.50968,,1 / 19,523,2018-06-19 15:18:25:386
-0.0983,0.281,9.967,-0.093,0.2639,9.806,-0.0054,0.0171,0.1611,0.0019,-0.0053,0.0112,63.0,-22.85,12.2,-38.35,60.88,-1.54,0.54,3.1,960.69,41.308,43.438263,-96.689926,1311.61,NaN,,,58.50968,,1 / 19,623,2018-06-19 15:18:25:486
-0.09,0.2693,9.979,-0.0924,0.2632,9.806,0.0024,0.0061,0.173,-0.0019,-0.0072,0.0107,62.0,-22.5,11.55,-38.2,59.8,-1.54,0.54,3.1,960.66,41.308,43.438263,-96.689926,1311.61,NaN,,,58.50968,,1 / 19,723,2018-06-19 15:18:25:586
-0.1019,0.2771,9.9715,-0.0927,0.2633,9.806,-0.0093,0.0138,0.1656,0.0021,-0.0072,0.0109,65.0,-22.85,11.95,-38.45,60.88,-1.54,0.54,3.1,960.75,40.965,43.438263,-96.689926,1311.61,NaN,,,58.50968,,1 / 19,822,2018-06-19 15:18:25:685
-0.0855,0.2679,9.9655,-0.0924,0.2641,9.806,0.0069,0.0039,0.1596,0.0045,-0.008,0.0099,66.0,-23.05,12.25,-38.65,60.84,-1.54,0.54,3.1,960.66,40.965,43.438263,-96.689926,1311.61,NaN,,,58.50968,,1 / 19,922,2018-06-19 15:18:25:785
-0.0916,0.2747,9.9603,-0.0921,0.2636,9.806,4.0E-4,0.0111,0.1543,3.0E-4,-0.008,0.0117,66.0,-23.1,12.05,-38.65,60.84,-1.54,0.54,3.1,960.69,40.965,43.438263,-96.689926,1311.61,NaN,,,58.50968,,1 / 19,1023,2018-06-19 15:18:25:886
-0.0934,0.276,9.9633,-0.0922,0.2635,9.806,-0.0012,0.0126,0.1573,8.0E-4,-0.0067,0.0112,63.0,-23.0,12.05,-38.55,60.84,-1.54,0.54,3.1,960.69,40.499,43.438263,-96.689926,1311.61,NaN,,,58.50968,,1 / 19,1123,2018-06-19 15:18:25:986
-0.0886,0.2742,9.9585,-0.0916,0.2645,9.806,0.003,0.0097,0.1525,-0.0013,-0.0069,0.0107,64.0,-23.0,12.4,-38.6,60.83,-1.55,0.54,3.1,960.63,40.499,43.438263,-96.689926,1311.61,NaN,,,58.50968,,1 / 19,1223,2018-06-19 15:18:26:086
-0.094,0.2724,9.9676,-0.0915,0.2644,9.806,-0.0025,0.0081,0.1617,-0.0027,-0.0075,0.0123,66.0,-23.0,12.5,-38.75,59.0,-1.54,0.53,3.1,960.63,40.499,43.438263,-96.689926,1311.61,NaN,,,58.50968,,1 / 19,1328,2018-06-19 15:18:26:191
-0.098,0.2648,9.9642,-0.0916,0.2644,9.806,-0.0064,4.0E-4,0.1582,-0.0013,-0.0067,0.0112,67.0,-22.75,11.95,-38.65,60.83,-1.54,0.54,3.1,960.7,40.499,43.438263,-96.689926,1311.61,NaN,,,58.50968,,1 / 19,1423,2018-06-19 15:18:26:286
-0.0907,0.2729,9.9706,-0.0916,0.2641,9.806,9.0E-4,0.0088,0.1647,0.0027,-0.0072,0.0115,62.0,-22.75,12.5,-38.55,59.0,-1.54,0.54,3.1,960.7,40.499,43.438263,-96.689926,1311.61,NaN,,,58.50968,,1 / 19,1524,2018-06-19 15:18:26:387
-0.1018,0.2667,9.9664,-0.0922,0.2639,9.806,-0.0096,0.0028,0.1605,-0.0019,-0.0064,0.0115,60.0,-22.6,12.55,-38.5,59.04,-1.54,0.54,3.1,960.76,41.202,43.438263,-96.689926,1311.61,NaN,,,58.50968,,5 / 19,1623,2018-06-19 15:18:26:486
-0.1018,0.2667,9.9664,-0.0922,0.2642,9.806,-0.0024,0.0102,0.1668,0.0016,-0.0061,0.0128,66.0,-22.6,12.25,-38.15,60.88,-1.54,0.54,3.1,960.73,41.202,43.438263,-96.689926,1311.61,NaN,,,58.50968,,5 / 19,1723,2018-06-19 15:18:26:586
-0.1067,0.278,9.9636,-0.0925,0.2645,9.806,-0.0142,0.0135,0.1576,8.0E-4,-0.0069,0.012,62.0,-22.85,12.55,-38.5,59.04,-1.55,0.54,3.1,960.7,41.202,43.438263,-96.689926,1311.61,NaN,,,58.50968,,5 / 19,1823,2018-06-19 15:18:26:686
-0.0916,0.2756,9.9604,-0.0922,0.2654,9.806,6.0E-4,0.0102,0.1545,0.0013,-0.008,0.0112,61.0,-23.2,13.5,-38.45,57.26,-1.55,0.54,3.1,960.61,41.202,43.438263,-96.689926,1311.61,NaN,,,58.50968,,5 / 19,1923,2018-06-19 15:18:26:786
-0.098,0.2801,9.9615,-0.0918,0.2646,9.806,-0.0063,0.0154,0.1555,-0.0032,-0.0075,0.012,66.0,-23.1,13.0,-38.45,59.03,-1.55,0.54,3.1,960.73,40.65,43.438263,-96.689926,1311.61,NaN,,,58.50968,,5 / 19,2023,2018-06-19 15:18:26:886
-0.0939,0.279,9.9666,-0.0922,0.2639,9.806,-0.0016,0.0151,0.1606,-5.0E-4,-0.0064,0.0117,69.0,-23.4,13.7,-38.6,57.23,-1.54,0.54,3.1,960.8,40.65,43.438263,-96.689926,1311.61,NaN,,,58.50968,,5 / 19,2123,2018-06-19 15:18:26:986
-0.0889,0.2795,9.9681,-0.0918,0.2642,9.806,0.0028,0.0153,0.1621,-5.0E-4,-0.0077,0.0117,66.0,-23.6,13.5,-38.7,58.31,-1.54,0.54,3.1,960.7,40.65,43.438263,-96.689926,1311.61,NaN,,,58.50968,,5 / 19,2223,2018-06-19 15:18:27:086
-0.0879,0.2685,9.9664,-0.0909,0.2617,9.806,0.003,0.0069,0.1605,-0.0027,-0.0072,0.0107,69.0,-23.3,13.4,-38.55,59.01,-1.53,0.53,3.1,960.74,40.65,43.438263,-96.689926,1311.61,NaN,,,58.50968,,5 / 19,2323,2018-06-19 15:18:27:186
-0.0948,0.2754,9.9613,-0.0909,0.262,9.806,-0.0039,0.0135,0.1554,-3.0E-4,-0.0069,0.0115,62.0,-23.3,13.35,-38.65,59.01,-1.53,0.53,3.1,960.71,40.787,43.438263,-96.689926,1311.61,NaN,,,58.50968,,5 / 19,2426,2018-06-19 15:18:27:289
-0.0979,0.2765,9.9624,-0.0912,0.2618,9.806,-0.0067,0.0147,0.1564,3.0E-4,-0.0072,0.0109,64.0,-23.2,13.05,-38.55,59.01,-1.53,0.53,3.1,960.77,40.787,43.438263,-96.689926,1311.61,NaN,,,58.50968,,5 / 19,2523,2018-06-19 15:18:27:386
-0.1016,0.2684,9.9702,-0.0919,0.2617,9.806,-0.0097,0.0067,0.1642,-0.0011,-0.0069,0.0107,65.0,-23.05,12.8,-38.65,59.02,-1.53,0.54,3.1,960.8,40.787,43.438263,-96.689926,1311.61,NaN,,,58.50968,,5 / 19,2623,2018-06-19 15:18:27:486
-0.0965,0.278,9.9646,-0.0919,0.2623,9.806,-0.0046,0.0157,0.1587,3.0E-4,-0.0056,0.0109,65.0,-22.95,12.1,-38.6,60.85,-1.53,0.54,3.1,960.74,40.373,43.438263,-96.689926,1311.61,NaN,,,58.50968,,5 / 19,2729,2018-06-19 15:18:27:592
-0.0903,0.273,9.9553,-0.0919,0.2623,9.806,0.0016,0.0108,0.1494,-8.0E-4,-0.0064,0.0117,61.0,-22.9,12.1,-38.55,60.85,-1.53,0.54,3.1,960.74,40.373,43.438263,-96.689926,1311.61,NaN,,,58.50968,,5 / 19,2823,2018-06-19 15:18:27:686
-0.0895,0.2775,9.9609,-0.0913,0.2632,9.806,0.0018,0.0144,0.1549,0.0013,-0.0075,0.0123,61.0,-23.2,12.1,-38.4,60.88,-1.54,0.53,3.1,960.71,40.373,43.438263,-96.689926,1311.61,NaN,,,58.50968,,5 / 19,2923,2018-06-19 15:18:27:786
-0.0965,0.2753,9.9679,-0.0912,0.2626,9.806,-0.0054,0.0127,0.162,-0.0011,-0.0075,0.012,61.0,-22.85,11.65,-38.1,60.88,-1.53,0.53,3.1,960.68,40.373,43.438263,-96.689926,1311.61,NaN,,,58.50968,,5 / 19,3025,2018-06-19 15:18:27:888
-0.0856,0.2703,9.9615,-0.0909,0.2623,9.806,0.0052,0.0081,0.1555,0.0024,-0.0061,0.0112,68.0,-22.95,12.25,-37.95,60.88,-1.53,0.53,3.1,960.65,40.492,43.438263,-96.689926,1311.61,NaN,,,58.50968,,5 / 19,3127,2018-06-19 15:18:27:990
-0.1081,0.2723,9.9639,-0.091,0.2617,9.806,-0.0171,0.0106,0.1579,-5.0E-4,-0.0069,0.0109,68.0,-22.65,12.2,-37.85,60.89,-1.53,0.53,3.1,960.72,40.492,43.438263,-96.689926,1311.61,NaN,,,58.50968,,5 / 19,3223,2018-06-19 15:18:28:086
-0.0998,0.2732,9.9651,-0.0913,0.2614,9.806,-0.0085,0.0118,0.1591,0.0,-0.0075,0.0117,65.0,-22.75,12.55,-37.85,59.05,-1.53,0.53,3.1,960.75,40.492,43.438263,-96.689926,1311.61,NaN,,,58.50968,,5 / 19,3326,2018-06-19 15:18:28:189
-0.0906,0.2736,9.9598,-0.0909,0.2615,9.806,3.0E-4,0.0121,0.1539,5.0E-4,-0.0067,0.0123,64.0,-22.55,12.45,-37.95,60.89,-1.53,0.53,3.1,960.63,41.605,43.438263,-96.689926,1311.61,NaN,,,58.50968,,5 / 19,3423,2018-06-19 15:18:28:286
-0.0939,0.2768,9.9637,-0.0909,0.2614,9.806,-0.003,0.0154,0.1578,-0.0021,-0.0064,0.0115,59.0,-22.6,12.5,-38.25,59.05,-1.53,0.53,3.1,960.69,41.605,43.438263,-96.689926,1311.61,NaN,,,58.50968,,5 / 19,3526,2018-06-19 15:18:28:389
-0.0948,0.2798,9.9606,-0.0912,0.2614,9.806,-0.0036,0.0184,0.1546,0.0029,-0.0067,0.012,64.0,-22.35,11.95,-38.25,59.81,-1.53,0.53,3.1,960.84,41.605,43.438324,-96.69011,1385.16,NaN,,0.0,258.0645,,5 / 19,3623,2018-06-19 15:18:28:486
-0.0877,0.2846,9.9697,-0.0906,0.2615,9.806,0.0028,0.0231,0.1638,3.0E-4,-0.0072,0.012,69.0,-22.6,12.55,-38.45,59.05,-1.53,0.53,3.1,960.63,41.605,43.438324,-96.69011,1385.16,NaN,,0.0,258.0645,,5 / 19,3727,2018-06-19 15:18:28:590
-0.1,0.269,9.9636,-0.0909,0.2614,9.806,-0.0091,0.0076,0.1576,0.0029,-0.0061,0.0107,66.0,-22.85,12.55,-38.6,59.01,-1.53,0.53,3.1,960.75,41.107,43.438324,-96.69011,1385.16,NaN,,0.0,258.0645,,5 / 19,3823,2018-06-19 15:18:28:686
-0.0918,0.2784,9.9681,-0.0909,0.262,9.806,-9.0E-4,0.0165,0.1621,-0.0021,-0.0072,0.012,65.0,-22.9,12.4,-38.55,60.85,-1.53,0.53,3.1,960.66,41.107,43.438324,-96.69011,1385.16,NaN,,0.0,258.0645,,5 / 19,3923,2018-06-19 15:18:28:786
-0.0971,0.2784,9.97,-0.091,0.2624,9.806,-0.0061,0.016,0.1641,-3.0E-4,-0.0072,0.012,60.0,-22.7,12.65,-38.8,59.01,-1.53,0.53,3.1,960.69,41.107,43.438324,-96.69011,1385.16,NaN,,0.0,258.0645,,5 / 19,4023,2018-06-19 15:18:28:886
-0.09,0.2712,9.9691,-0.0906,0.2615,9.806,6.0E-4,0.0097,0.1632,-0.0011,-0.0069,0.0117,62.0,-22.7,12.6,-38.7,59.01,-1.53,0.53,3.1,960.66,40.575,43.438324,-96.69011,1385.16,NaN,,0.0,258.0645,,5 / 19,4124,2018-06-19 15:18:28:987
-0.0927,0.2772,9.9601,-0.0901,0.2623,9.806,-0.0025,0.015,0.1542,0.004,-0.0067,0.0117,65.0,-22.55,11.85,-38.75,60.84,-1.53,0.53,3.1,960.73,40.575,43.438324,-96.69011,1385.16,NaN,,0.0,258.0645,,5 / 19,4223,2018-06-19 15:18:29:086
-0.0945,0.2685,9.9628,-0.0904,0.2611,9.8061,-0.004,0.0075,0.1567,0.0019,-0.0069,0.0115,65.0,-22.6,12.2,-38.95,60.85,-1.52,0.53,3.1,960.69,40.575,43.438324,-96.69011,1385.16,NaN,,0.0,258.0645,,5 / 19,4329,2018-06-19 15:18:29:192
-0.1021,0.2691,9.955,-0.0906,0.2609,9.8061,-0.0115,0.0082,0.1489,-0.0021,-0.0077,0.0115,62.0,-22.55,12.05,-38.7,60.85,-1.52,0.53,3.1,960.66,40.575,43.438324,-96.69011,1385.16,NaN,,0.0,258.0645,,5 / 19,4423,2018-06-19 15:18:29:286
-0.0891,0.2819,9.9655,-0.0906,0.2609,9.8061,0.0015,0.021,0.1594,5.0E-4,-0.0072,0.0099,62.0,-22.3,11.9,-38.65,59.77,-1.52,0.53,3.1,960.63,40.909,43.438324,-96.69011,1385.16,NaN,,0.0,258.0645,,5 / 19,4523,2018-06-19 15:18:29:386
-0.0946,0.2801,9.97,-0.0906,0.2615,9.806,-0.004,0.0186,0.1641,0.0,-0.0072,0.0101,60.0,-22.3,11.55,-38.25,59.81,-1.53,0.53,3.1,960.7,40.909,43.438324,-96.69011,1385.16,NaN,,0.0,258.0645,,5 / 19,4623,2018-06-19 15:18:29:486
-0.0965,0.2801,9.9708,-0.0909,0.2629,9.806,-0.0057,0.0172,0.1648,0.0016,-0.0067,0.0112,70.0,-22.55,12.2,-38.1,60.88,-1.54,0.53,3.1,960.67,40.909,43.438324,-96.69011,1385.16,NaN,,0.0,258.0645,,5 / 19,4727,2018-06-19 15:18:29:590
-0.0958,0.2729,9.9615,-0.0907,0.263,9.806,-0.0051,0.0099,0.1555,5.0E-4,-0.0067,0.012,65.0,-22.55,12.15,-38.15,60.88,-1.54,0.53,3.1,960.67,41.746,43.438324,-96.69011,1385.16,NaN,,0.0,258.0645,,5 / 19,4823,2018-06-19 15:18:29:686
-0.0867,0.2658,9.9453,-0.0904,0.2617,9.806,0.0037,0.0042,0.1394,-3.0E-4,-0.0067,0.0112,66.0,-22.6,12.7,-37.85,59.05,-1.53,0.53,3.1,960.7,41.746,43.438324,-96.69011,1385.16,NaN,,0.0,258.0645,,5 / 19,4924,2018-06-19 15:18:29:787
-0.1004,0.2774,9.9691,-0.0909,0.2629,9.806,-0.0096,0.0145,0.1632,8.0E-4,-0.0067,0.012,66.0,-22.75,13.1,-37.65,59.04,-1.54,0.53,3.1,960.76,41.746,43.438324,-96.69011,1385.16,NaN,,0.0,258.0645,,5 / 19,5023,2018-06-19 15:18:29:886
-0.0961,0.2783,9.9555,-0.0912,0.2623,9.806,-0.0049,0.016,0.1495,0.0,-0.0075,0.0128,66.0,-22.9,12.95,-37.7,59.05,-1.53,0.53,3.1,960.7,41.746,43.438324,-96.69011,1385.16,NaN,,0.0,258.0645,,5 / 19,5129,2018-06-19 15:18:29:992
-0.1022,0.2811,9.9639,-0.0912,0.262,9.806,-0.0111,0.0192,0.1579,0.0013,-0.0075,0.0115,63.0,-22.9,12.7,-37.5,59.09,-1.53,0.53,3.1,960.7,41.746,43.438324,-96.69011,1385.16,NaN,,0.0,258.0645,,5 / 19,5222,2018-06-19 15:18:30:085
-0.0976,0.2784,9.9592,-0.0916,0.2621,9.806,-0.006,0.0163,0.1533,0.0019,-0.0072,0.0115,66.0,-23.1,12.85,-37.75,59.05,-1.53,0.54,3.1,960.76,40.545,43.438324,-96.69011,1385.16,NaN,,0.0,258.0645,,5 / 19,5323,2018-06-19 15:18:30:186
-0.088,0.2808,9.957,-0.0912,0.2618,9.806,0.0031,0.019,0.151,-3.0E-4,-0.0061,0.0112,65.0,-22.85,12.4,-38.0,60.89,-1.53,0.53,3.1,960.7,40.545,43.438324,-96.69011,1385.16,NaN,,0.0,258.0645,,5 / 19,5423,2018-06-19 15:18:30:286
-0.0868,0.2777,9.9639,-0.091,0.2621,9.806,0.0042,0.0156,0.1579,-0.0019,-0.0069,0.0112,55.0,-22.85,11.9,-38.1,60.89,-1.53,0.53,3.1,960.7,40.545,43.438324,-96.69011,1385.16,NaN,,0.0,258.0645,,5 / 19,5523,2018-06-19 15:18:30:386
-0.0894,0.276,9.9711,-0.0906,0.262,9.806,0.0012,0.0141,0.1651,-3.0E-4,-0.0075,0.0125,38.0,-22.65,11.45,-38.4,62.79,-1.53,0.53,3.1,960.58,40.545,43.438324,-96.69011,1385.16,NaN,,0.0,258.0645,,5 / 19,5622,2018-06-19 15:18:30:485
-0.1009,0.2834,9.9756,-0.0906,0.262,9.806,-0.0103,0.0214,0.1696,-0.0013,-0.0069,0.0115,54.0,-22.9,12.2,-38.65,60.84,-1.53,0.53,3.1,960.67,40.545,43.438324,-96.69011,1385.16,NaN,,0.0,258.0645,,1 / 19,5726,2018-06-19 15:18:30:589
-0.0995,0.2652,9.9657,-0.0907,0.2612,9.806,-0.0088,0.004,0.1597,0.0,-0.0085,0.0123,63.0,-23.05,13.05,-38.8,59.01,-1.53,0.53,3.1,960.74,40.523,43.438324,-96.69011,1385.16,NaN,,0.0,258.0645,,1 / 19,5822,2018-06-19 15:18:30:685
-0.0964,0.269,9.9621,-0.091,0.2609,9.806,-0.0054,0.0081,0.1561,-5.0E-4,-0.0069,0.0112,62.0,-23.3,13.65,-38.9,57.25,-1.52,0.53,3.1,960.74,40.523,43.438324,-96.69011,1385.16,NaN,,0.0,258.0645,,1 / 19,5922,2018-06-19 15:18:30:785
-0.088,0.2754,9.9703,-0.0907,0.2609,9.806,0.0027,0.0145,0.1644,0.004,-0.0072,0.012,40.0,-23.6,14.2,-39.05,58.33,-1.52,0.53,3.1,960.68,40.523,43.438324,-96.69011,1385.16,NaN,,0.0,258.0645,,1 / 19,6023,2018-06-19 15:18:30:886
-0.0925,0.2768,9.9618,-0.0913,0.2608,9.8061,-0.0012,0.016,0.1557,3.0E-4,-0.008,0.0128,32.0,-23.6,14.4,-38.75,58.34,-1.52,0.53,3.1,960.65,41.195,43.438324,-96.69011,1385.16,NaN,,0.0,258.0645,,1 / 19,6126,2018-06-19 15:18:30:989
-0.093,0.2817,9.9775,-0.0912,0.2612,9.806,-0.0018,0.0205,0.1715,-0.0011,-0.0067,0.0112,37.0,-23.35,14.15,-38.7,57.25,-1.53,0.53,3.1,960.68,41.195,43.438324,-96.69011,1385.16,NaN,,0.0,258.0645,,1 / 19,6223,2018-06-19 15:18:31:086
-0.094,0.2769,9.9603,-0.0918,0.2621,9.806,-0.0022,0.0148,0.1543,-0.0035,-0.0067,0.0123,33.0,-23.05,13.5,-38.2,57.28,-1.53,0.54,3.1,960.62,41.195,43.438324,-96.69011,1385.16,NaN,,0.0,258.0645,,1 / 19,6326,2018-06-19 15:18:31:189
-0.1006,0.2784,9.9664,-0.0922,0.2614,9.806,-0.0084,0.0171,0.1605,-0.0011,-0.0085,0.0109,40.0,-22.9,12.9,-38.35,59.06,-1.53,0.54,3.1,960.62,41.195,43.438324,-96.69011,1385.16,NaN,,0.0,258.0645,,1 / 19,6422,2018-06-19 15:18:31:285
-0.0874,0.2789,9.9724,-0.0912,0.2612,9.806,0.0037,0.0177,0.1665,0.0,-0.008,0.0128,39.0,-22.7,12.4,-38.2,60.89,-1.53,0.53,3.1,960.68,41.363,43.438324,-96.69011,1385.16,NaN,,0.0,258.0645,,1 / 19,6527,2018-06-19 15:18:31:390
-0.1021,0.2723,9.9753,-0.0894,0.262,9.806,-0.0127,0.0103,0.1693,-5.0E-4,-0.0067,0.0154,40.0,-22.5,12.35,-38.05,59.8,-1.53,0.52,3.1,960.68,41.363,43.438324,-96.69011,1385.16,NaN,,0.0,258.0645,,4 / 19,6624,2018-06-19 15:18:31:487
-0.0861,0.2917,9.9576,-0.0783,0.2599,9.8061,-0.0078,0.0319,0.1515,-0.0016,-0.0088,0.0876,37.0,-22.45,12.15,-38.05,59.77,-1.52,0.46,3.1,960.71,41.363,43.438324,-96.69011,1385.16,NaN,,0.0,258.0645,,4 / 19,6723,2018-06-19 15:18:31:586
-0.0467,0.3223,9.9542,-0.081,0.2627,9.8061,0.0343,0.0596,0.148,0.0043,0.0083,0.0788,41.0,-22.3,11.8,-38.0,59.76,-1.53,0.47,3.1,960.71,41.564,43.438324,-96.69011,1385.16,NaN,,0.0,258.0645,,4 / 19,6823,2018-06-19 15:18:31:686
-0.0903,0.2383,9.9709,-0.0868,0.2614,9.8061,-0.0034,-0.0231,0.1648,0.0032,-0.0069,0.0115,38.0,-22.35,12.5,-38.2,57.92,-1.53,0.51,3.1,960.71,41.564,43.438324,-96.69011,1385.16,NaN,,0.0,258.0645,,4 / 19,6923,2018-06-19 15:18:31:786
-0.1573,0.3155,9.9452,-0.0775,0.2591,9.8063,-0.0798,0.0564,0.1389,0.0011,-0.0099,-3.0E-4,30.0,-22.25,12.4,-38.25,59.77,-1.51,0.45,3.1,960.74,41.564,43.438324,-96.69011,1385.16,NaN,,0.0,258.0645,,4 / 19,7023,2018-06-19 15:18:31:886
-0.0823,0.237,10.1902,-0.0379,0.2542,9.8066,-0.0445,-0.0172,0.3837,0.004,-0.2479,0.0045,37.0,-22.25,12.1,-38.1,59.63,-1.48,0.22,3.1,960.68,41.453,43.438324,-96.69011,1385.16,NaN,,0.0,258.0645,,4 / 19,7126,2018-06-19 15:18:31:989
0.4335,0.3229,9.9973,0.6462,0.2649,9.785,-0.2127,0.0579,0.2123,0.0043,-0.5776,0.0051,31.0,-22.95,12.8,-37.8,55.48,-1.55,-3.78,3.1,960.71,41.453,43.438324,-96.69011,1385.16,NaN,,0.0,258.0645,,4 / 19,7223,2018-06-19 15:18:32:086
0.8213,0.2973,9.9768,1.0867,0.2699,9.7458,-0.2654,0.0274,0.231,0.0051,-0.6882,0.0194,43.0,-23.3,12.9,-37.45,53.11,-1.58,-6.36,3.1,960.71,41.453,43.438324,-96.69011,1385.16,NaN,,0.0,258.0645,,4 / 19,7323,2018-06-19 15:18:32:186
1.2575,0.2838,9.9323,1.5846,0.2751,9.6772,-0.3271,0.0087,0.2551,0.0088,-0.7736,0.0264,43.0,-23.95,12.85,-37.25,51.41,-1.61,-9.3,3.1,960.62,41.453,43.438324,-96.69011,1385.16,NaN,,0.0,258.0645,,4 / 19,7423,2018-06-19 15:18:32:286
2.3491,0.2648,9.6,2.6651,0.281,9.4368,-0.316,-0.0162,0.1632,0.0064,-0.7441,0.0328,49.0,-25.8,13.25,-35.95,47.04,-1.64,-15.77,0.0,960.65,41.015,43.438324,-96.69011,1385.16,NaN,,0.0,258.0645,,4 / 19,7523,2018-06-19 15:18:32:386
2.8692,0.2855,9.4942,3.1583,0.2807,9.2834,-0.289,0.0048,0.2108,0.0067,-0.7721,0.0376,41.0,-27.55,13.55,-35.4,45.07,-1.64,-18.79,0.0,960.66,41.015,43.438324,-96.69011,1385.16,NaN,,0.0,258.0645,,4 / 19,7622,2018-06-19 15:18:32:485
3.8795,0.2426,9.2611,4.2139,0.2766,8.8544,-0.3344,-0.034,0.4067,0.0277,-0.9926,0.0727,43.0,-30.7,14.3,-33.0,42.24,-1.62,-25.45,0.0,960.68,41.015,43.438324,-96.69011,1385.16,NaN,,0.0,258.0645,,4 / 19,7723,2018-06-19 15:18:32:586
4.4583,0.278,8.8944,4.8486,0.2738,8.5236,-0.3902,0.0042,0.3708,0.0162,-1.0754,0.0413,39.0,-32.2,14.25,-31.65,38.25,-1.6,-29.63,0.0,960.63,41.034,43.438324,-96.69011,1385.16,NaN,,0.0,258.0645,,4 / 19,7823,2018-06-19 15:18:32:686
5.5865,0.25,7.986,5.8618,0.2687,7.8614,-0.2753,-0.0187,0.1247,0.0248,-0.6916,0.0466,37.0,-35.65,14.85,-27.9,36.81,-1.57,-36.71,0.0,960.59,41.034,43.438324,-96.69011,1385.16,NaN,,0.0,258.0645,,4 / 19,7925,2018-06-19 15:18:32:788
5.5865,0.25,7.986,5.8618,0.2687,7.8614,-0.2753,-0.0187,0.1247,0.0248,-0.6916,0.0466,43.0,-35.65,14.85,-27.9,36.81,-1.57,-36.71,0.0,960.66,41.034,43.438324,-96.69011,1385.16,NaN,,0.0,258.0645,,4 / 19,8023,2018-06-19 15:18:32:886
6.0024,0.281,7.9851,6.2221,0.2681,7.5795,-0.2197,0.0129,0.4057,0.0506,-0.8346,0.0794,42.0,-37.15,15.15,-26.05,36.78,-1.57,-39.38,0.0,960.72,41.034,43.438324,-96.69011,1385.16,NaN,,0.0,258.0645,,4 / 19,8123,2018-06-19 15:18:32:986
6.0024,0.281,7.9851,6.2221,0.2681,7.5795,-0.2197,0.0129,0.4057,0.0506,-0.8346,0.0794,42.0,-37.15,15.15,-26.05,36.78,-1.57,-39.38,0.0,960.72,41.034,43.438324,-96.69011,1385.16,NaN,,0.0,258.0645,,4 / 19,8223,2018-06-19 15:18:33:086
6.0024,0.281,7.9851,6.2221,0.2681,7.5795,-0.2197,0.0129,0.4057,0.0506,-0.8346,0.0794,42.0,-37.15,15.15,-26.05,36.78,-1.57,-39.38,0.0,960.72,41.034,43.438324,-96.69011,1385.16,NaN,,0.0,258.0645,,4 / 19,8323,2018-06-19 15:18:33:186
6.0024,0.281,7.9851,6.2221,0.2681,7.5795,-0.2197,0.0129,0.4057,0.0506,-0.8346,0.0794,42.0,-37.15,15.15,-26.05,36.78,-1.57,-39.38,0.0,960.72,41.034,43.438324,-96.69011,1385.16,NaN,,0.0,258.0645,,4 / 19,8423,2018-06-19 15:18:33:286
8.2978,0.1632,5.2725,8.5137,0.2272,4.8683,-0.2159,-0.0641,0.4042,-0.0274,-0.7798,0.0053,39.0,-45.3,19.45,-12.4,30.75,-1.33,-60.24,3.1,960.69,41.034,43.438324,-96.69011,1385.16,NaN,,0.0,258.0645,,4 / 19,8523,2018-06-19 15:18:33:386
8.5842,0.172,4.7442,8.7471,0.2188,4.4356,-0.1629,-0.0469,0.3087,-0.0309,-0.6842,-0.0024,30.0,-46.05,20.3,-10.7,27.61,-1.28,-63.11,3.1,960.78,41.034,43.438324,-96.69011,1385.16,NaN,,0.0,258.0645,,4 / 19,8623,2018-06-19 15:18:33:486
8.5842,0.172,4.7442,8.7471,0.2188,4.4356,-0.1629,-0.0469,0.3087,-0.0309,-0.6842,-0.0024,32.0,-46.05,20.3,-10.7,27.61,-1.28,-63.11,3.1,960.78,41.798,43.438324,-96.69011,1385.16,NaN,,0.0,258.0645,,4 / 19,8723,2018-06-19 15:18:33:586
9.0732,0.2091,3.6865,9.2217,0.2147,3.3387,-0.1485,-0.0055,0.3479,-0.0075,-0.8754,0.0083,11.0,-47.0,21.25,-6.35,25.21,-1.25,-70.1,3.1,960.68,41.798,43.438324,-96.69011,1385.16,NaN,,0.0,258.0645,,4 / 19,8823,2018-06-19 15:18:33:686
9.3931,0.185,2.8284,9.4591,0.2079,2.5914,-0.066,-0.0229,0.237,0.0053,-0.4378,0.0165,11.0,-47.75,21.85,-2.0,25.07,-1.21,-74.68,3.1,960.74,41.798,43.438324,-96.69011,1385.16,NaN,,0.0,258.0645,,4 / 19,8927,2018-06-19 15:18:33:790
9.5281,0.1876,2.1518,9.572,0.1982,2.1379,-0.0439,-0.0106,0.0139,-0.0636,-0.0788,0.0035,11.0,-48.3,22.55,2.4,27.42,-1.16,-77.41,3.1,960.64,41.798,43.438324,-96.69011,1385.16,NaN,,0.0,258.0645,,4 / 19,9023,2018-06-19 15:18:33:886
9.6055,0.1958,2.0835,9.622,0.1928,1.901,-0.0165,0.003,0.1825,0.004,-0.2975,0.0083,26.0,-48.7,24.05,6.8,33.3,-1.13,-78.82,3.1,960.73,41.983,43.438324,-96.69011,1385.16,NaN,,0.0,258.0645,,4 / 19,9123,2018-06-19 15:18:33:986
9.6275,0.1886,1.8618,9.656,0.1926,1.7201,-0.0284,-0.004,0.1418,-0.0285,-0.2224,0.0051,23.0,-48.85,24.5,8.05,32.44,-1.13,-79.9,0.0,960.76,41.983,43.438324,-96.69011,1385.16,NaN,,0.0,258.0645,,4 / 19,9222,2018-06-19 15:18:34:085
9.6801,0.1915,1.5657,9.7042,0.1904,1.4238,-0.0241,0.001,0.1419,-0.0184,-0.229,0.0091,23.0,-48.95,25.2,10.2,33.28,-1.11,-81.65,0.0,960.66,41.983,43.438324,-96.69011,1385.16,NaN,,0.0,258.0645,,4 / 19,9323,2018-06-19 15:18:34:186
9.7036,0.2103,1.4068,9.7185,0.1864,1.3228,-0.015,0.024,0.084,-0.0543,-0.0967,0.0096,25.0,-48.9,25.3,11.25,34.07,-1.09,-82.25,0.0,960.75,41.537,43.438324,-96.69011,1385.16,NaN,,0.0,258.0645,,4 / 19,9423,2018-06-19 15:18:34:286
9.738,0.1924,1.1438,9.7575,0.1799,0.9978,-0.0195,0.0124,0.1459,-0.053,-0.2676,0.0133,26.0,-48.1,24.75,12.7,34.58,-1.05,-84.16,0.0,960.71,41.537,43.438324,-96.69011,1385.16,NaN,,0.0,258.0645,,4 / 19,9523,2018-06-19 15:18:34:386
9.764,0.1621,0.9999,9.77,0.1733,0.8658,-0.006,-0.0112,0.1341,-0.1052,-0.1656,0.0093,25.0,-47.6,23.85,13.15,34.7,-1.01,-84.94,0.0,960.71,41.537,43.438324,-96.69011,1385.16,NaN,,0.0,258.0645,,4 / 19,9623,2018-06-19 15:18:34:486
9.7572,0.1968,0.863,9.7805,0.1723,0.7399,-0.0234,0.0245,0.123,-0.0189,-0.2288,0.0085,24.0,-47.1,22.95,13.45,34.74,-1.01,-85.67,0.0,960.7,47.763,43.438324,-96.69011,1385.16,NaN,,0.0,258.0645,,4 / 19,9723,2018-06-19 15:18:34:586
9.7893,0.1786,0.5541,9.7991,0.1742,0.426,-0.0097,0.0043,0.1281,0.0208,-0.2818,0.0067,22.0,-46.15,21.55,14.5,36.68,-1.02,-87.51,0.0,960.69,47.763,43.438324,-96.69011,1385.16,NaN,,0.0,258.0645,,4 / 19,9823,2018-06-19 15:18:34:686
9.7843,0.1763,0.3202,9.8027,0.1778,0.3329,-0.0184,-0.0015,-0.0127,0.0149,-0.0357,0.0072,25.0,-45.85,21.5,15.2,35.95,-1.04,-88.05,0.0,960.81,47.763,43.438324,-96.69011,1385.16,NaN,,0.0,258.0645,,4 / 19,9923,2018-06-19 15:18:34:786
9.7887,0.2006,0.4666,9.8027,0.1849,0.3274,-0.0139,0.0157,0.1392,0.0045,-0.045,0.0059,22.0,-45.4,21.35,15.85,38.7,-1.08,-88.09,0.0,960.77,64.115,43.438324,-96.69011,1385.16,NaN,,0.0,258.0645,,4 / 19,10026,2018-06-19 15:18:34:889
9.789,0.1983,0.3599,9.8036,0.1868,0.2997,-0.0145,0.0115,0.0602,-0.0077,-0.0381,0.0107,23.0,-45.25,21.5,16.3,37.25,-1.09,-88.25,0.0,960.77,64.115,43.438324,-96.69011,1385.16,NaN,,0.0,258.0645,,4 / 19,10123,2018-06-19 15:18:34:986
9.7856,0.1894,0.3591,9.8039,0.1841,0.2932,-0.0183,0.0052,0.0659,-0.0293,-0.0037,0.017,24.0,-45.3,21.65,16.55,38.77,-1.08,-88.29,0.0,960.82,64.115,43.438324,-96.69011,1385.16,NaN,,0.0,258.0645,,4 / 19,10223,2018-06-19 15:18:35:086
9.7856,0.1894,0.3591,9.8039,0.1841,0.2932,-0.0183,0.0052,0.0659,-0.0293,-0.0037,0.017,24.0,-45.3,21.65,16.55,38.77,-1.08,-88.29,0.0,960.82,64.115,43.438324,-96.69011,1385.16,NaN,,0.0,258.0645,,4 / 19,10323,2018-06-19 15:18:35:186
9.7872,0.1792,0.2723,9.8058,0.1775,0.2202,-0.0186,0.0016,0.0521,-0.0067,-0.0527,0.0115,22.0,-45.2,21.7,17.2,38.29,-1.04,-88.71,0.0,960.75,64.115,43.438324,-96.69011,1385.16,NaN,,0.0,258.0645,,4 / 19,10423,2018-06-19 15:18:35:286
9.788,0.1871,0.2028,9.807,0.179,0.156,-0.019,0.0081,0.0469,-0.013,-0.0466,0.0099,24.0,-44.9,21.55,17.75,39.36,-1.05,-89.09,0.0,960.69,42.723,43.438324,-96.69011,1385.16,NaN,,0.0,258.0645,,4 / 19,10523,2018-06-19 15:18:35:386
9.7911,0.1894,0.1747,9.8073,0.1819,0.1329,-0.0162,0.0075,0.0418,-0.0013,-0.0442,0.0053,25.0,-44.8,21.55,17.85,39.19,-1.06,-89.22,0.0,960.8,42.723,43.438324,-96.69011,1385.16,NaN,,0.0,258.0645,,4 / 19,10623,2018-06-19 15:18:35:486
9.7992,0.1904,0.1566,9.8075,0.1852,0.1132,-0.0082,0.0052,0.0434,-0.0027,-0.0123,0.0091,21.0,-44.85,21.2,17.95,40.29,-1.08,-89.34,0.0,960.77,42.723,43.438324,-96.69011,1385.16,NaN,,0.0,258.0645,,4 / 19,10726,2018-06-19 15:18:35:589
9.7911,0.1912,0.1365,9.8076,0.1855,0.1114,-0.0165,0.0057,0.0251,-0.0029,-0.0075,0.0109,19.0,-44.7,21.3,18.0,40.28,-1.08,-89.35,0.0,960.71,42.723,43.438324,-96.69011,1385.16,NaN,,0.0,258.0645,,4 / 19,10823,2018-06-19 15:18:35:686
9.7989,0.1837,0.1206,9.8075,0.1859,0.115,-0.0085,-0.0022,0.0057,0.0115,0.012,0.0123,22.0,-44.75,21.3,18.2,40.3,-1.09,-89.33,0.0,960.67,42.723,43.438324,-96.69011,1385.16,NaN,,0.0,258.0645,,4 / 19,10923,2018-06-19 15:18:35:786
9.8027,0.1874,0.1397,9.8073,0.1841,0.1328,-0.0046,0.0033,0.0069,0.0173,0.0229,0.0144,22.0,-44.75,21.25,18.25,40.44,-1.08,-89.22,0.0,960.67,42.115,43.438324,-96.69011,1385.16,NaN,,0.0,258.0645,,4 / 19,11023,2018-06-19 15:18:35:886
9.7822,0.1787,0.1745,9.807,0.1829,0.1494,-0.0248,-0.0042,0.0251,0.0213,0.0056,0.0099,22.0,-44.85,21.2,18.35,40.56,-1.07,-89.13,0.0,960.72,42.115,43.438324,-96.69011,1385.16,NaN,,0.0,258.0645,,4 / 19,11126,2018-06-19 15:18:35:989
9.7899,0.1822,0.1973,9.8067,0.1843,0.172,-0.0168,-0.0021,0.0253,0.0245,0.0075,0.0083,19.0,-44.75,21.0,18.3,40.71,-1.08,-89.0,0.0,960.72,42.115,43.438324,-96.69011,1385.16,NaN,,0.0,258.0645,,4 / 19,11223,2018-06-19 15:18:36:086
9.7952,0.1849,0.2238,9.8067,0.1855,0.1732,-0.0115,-6.0E-4,0.0506,3.0E-4,-0.025,0.0101,22.0,-44.6,20.95,18.3,40.71,-1.08,-88.99,0.0,960.69,41.978,43.438324,-96.69011,1385.16,NaN,,0.0,258.0645,,4 / 19,11323,2018-06-19 15:18:36:186
9.7953,0.1971,0.1901,9.8069,0.19,0.1575,-0.0115,0.0072,0.0326,0.0037,-0.016,0.0051,23.0,-44.75,21.35,18.35,40.57,-1.11,-89.08,0.0,960.68,41.978,43.438324,-96.69011,1385.16,NaN,,0.0,258.0645,,4 / 19,11423,2018-06-19 15:18:36:286
9.7899,0.201,0.1805,9.8069,0.1926,0.1491,-0.0169,0.0084,0.0314,0.0019,-0.029,0.0056,22.0,-45.1,22.1,18.35,39.24,-1.13,-89.13,0.0,960.68,41.978,43.438324,-96.69011,1385.16,NaN,,0.0,258.0645,,4 / 19,11526,2018-06-19 15:18:36:389
9.7902,0.1997,0.1624,9.807,0.1959,0.1334,-0.0168,0.0037,0.029,0.0117,-0.0296,0.0053,20.0,-45.25,22.45,18.15,39.11,-1.14,-89.22,0.0,960.7,48.122,43.438324,-96.69011,1385.16,NaN,,0.0,258.0645,,4 / 19,11623,2018-06-19 15:18:36:486
9.7935,0.2078,0.1184,9.8075,0.1989,0.0925,-0.0139,0.0088,0.0259,-0.0099,-0.0365,0.0101,20.0,-45.55,23.2,18.5,39.09,-1.16,-89.46,0.0,960.76,48.122,43.438324,-96.69011,1385.16,NaN,,0.0,258.0645,,4 / 19,11723,2018-06-19 15:18:36:586
9.7946,0.2054,0.0958,9.8076,0.1986,0.0753,-0.013,0.0067,0.0205,-0.0093,-0.0288,0.0091,21.0,-45.35,23.0,18.65,38.98,-1.16,-89.56,0.0,960.7,48.122,43.438324,-96.69011,1385.16,NaN,,0.0,258.0645,,4 / 19,11822,2018-06-19 15:18:36:685
9.785,0.2106,0.0831,9.8078,0.1976,0.0482,-0.0228,0.013,0.0349,-0.0077,-0.0304,0.0146,23.0,-44.8,21.8,18.45,38.51,-1.15,-89.72,0.0,960.82,41.676,43.438324,-96.69011,1385.16,NaN,,0.0,258.0645,,4 / 19,11923,2018-06-19 15:18:36:786
9.7988,0.206,0.0654,9.8079,0.1964,0.0392,-0.0091,0.0096,0.0262,-0.0141,-0.0178,0.0136,19.0,-44.7,21.6,18.45,38.45,-1.15,-89.77,0.0,960.69,41.676,43.438324,-96.69011,1385.16,NaN,,0.0,258.0645,,4 / 19,12023,2018-06-19 15:18:36:886
9.7947,0.2001,0.037,9.8079,0.1955,0.0322,-0.0132,0.0046,0.0048,-0.0021,0.0016,0.0123,20.0,-43.75,19.8,18.65,42.53,-1.14,-89.81,0.0,960.81,41.676,43.438324,-96.69011,1385.16,NaN,,0.0,258.0645,,4 / 19,12126,2018-06-19 15:18:36:989
9.7902,0.206,0.041,9.8079,0.1946,0.0367,-0.0177,0.0114,0.0043,0.0,0.0,0.0117,20.0,-43.35,19.35,18.85,43.99,-1.14,-89.79,0.0,960.81,41.676,43.438324,-96.69011,1385.16,NaN,,0.0,258.0645,,4 / 19,12223,2018-06-19 15:18:37:086
9.788,0.194,0.0775,9.8079,0.1932,0.0591,-0.0199,7.0E-4,0.0184,-0.0085,-0.0107,0.012,21.0,-43.05,18.2,18.6,45.63,-1.13,-89.65,0.0,960.78,41.731,43.438324,-96.69011,1385.16,NaN,,0.0,258.0645,,4 / 19,12323,2018-06-19 15:18:37:186
9.7926,0.19,0.0674,9.8079,0.1915,0.0593,-0.0153,-0.0015,0.0081,-0.0061,-0.0027,0.0144,22.0,-42.95,17.95,18.65,45.64,-1.12,-89.65,0.0,960.74,41.731,43.438324,-96.69011,1385.16,NaN,,0.0,258.0645,,4 / 19,12423,2018-06-19 15:18:37:286
9.792,0.1841,0.0726,9.8079,0.1898,0.0567,-0.0159,-0.0057,0.0159,-0.0035,-0.0154,0.0109,21.0,-42.9,18.1,18.75,45.63,-1.11,-89.67,0.0,960.71,41.731,43.438324,-96.69011,1385.16,NaN,,0.0,258.0645,,4 / 19,12525,2018-06-19 15:18:37:388
9.7994,0.1956,0.1073,9.8079,0.1912,0.0518,-0.0085,0.0045,0.0555,0.0021,-0.0434,0.0112,23.0,-42.9,18.0,18.6,45.59,-1.12,-89.7,0.0,960.77,41.767,43.438324,-96.69011,1385.16,NaN,,0.0,258.0645,,4 / 19,12623,2018-06-19 15:18:37:486
9.7907,0.2025,0.0248,9.8081,0.1912,0.0253,-0.0174,0.0114,-4.0E-4,-0.0024,-0.0293,0.012,23.0,-42.95,18.0,18.55,45.42,-1.12,-89.85,0.0,960.71,41.767,43.438324,-96.69011,1385.16,NaN,,0.0,258.0645,,4 / 19,12723,2018-06-19 15:18:37:586
9.7946,0.1823,-0.0069,9.8081,0.1882,0.0178,-0.0135,-0.0058,-0.0247,-0.0091,0.0162,0.0117,19.0,-43.1,18.45,18.75,45.39,-1.1,-89.9,0.0,960.71,41.767,43.438324,-96.69011,1385.16,NaN,,0.0,258.0645,,4 / 19,12823,2018-06-19 15:18:37:686
9.7889,0.1909,0.0486,9.8081,0.1888,0.0238,-0.0192,0.0021,0.0248,-5.0E-4,-0.0253,0.0085,7.0,-43.25,18.3,18.7,45.42,-1.1,-89.86,0.0,960.77,41.287,43.438324,-96.69011,1385.16,NaN,,0.0,258.0645,,4 / 19,12923,2018-06-19 15:18:37:786
9.7757,0.1909,0.0072,9.8081,0.1888,0.0069,-0.0323,0.0021,3.0E-4,5.0E-4,-0.0123,0.0104,21.0,-43.5,18.35,18.8,45.31,-1.1,-89.96,0.0,960.73,41.287,43.438324,-96.69011,1385.16,NaN,,0.0,258.0645,,4 / 19,13023,2018-06-19 15:18:37:886
9.7916,0.1921,-0.0012,9.8081,0.1897,0.0124,-0.0165,0.0024,-0.0136,0.0115,0.004,0.0056,19.0,-43.5,18.65,18.65,43.86,-1.11,-89.93,0.0,960.73,41.287,43.438324,-96.69011,1385.16,NaN,,0.0,258.0645,,4 / 19,13123,2018-06-19 15:18:37:986
9.7889,0.1965,0.0329,9.8081,0.1918,0.0112,-0.0192,0.0048,0.0217,0.0027,-0.0091,0.0104,26.0,-43.25,18.15,18.85,45.32,-1.12,-89.93,0.0,960.77,41.735,43.438324,-96.69011,1385.16,NaN,,0.0,258.0645,,4 / 19,13223,2018-06-19 15:18:38:086
9.7901,0.1979,-0.0129,9.8081,0.1898,-0.0171,-0.018,0.0081,0.0042,-0.0019,-0.0234,0.0128,23.0,-43.35,18.6,19.15,43.66,-1.11,-90.1,0.0,960.73,41.735,43.438324,-96.69011,1385.16,NaN,,0.0,258.0645,,4 / 19,13323,2018-06-19 15:18:38:186
9.798,0.1938,-0.0341,9.8081,0.1892,-0.0189,-0.01,0.0046,-0.0153,-0.0016,0.0019,0.0115,25.0,-43.1,17.85,18.85,45.14,-1.11,-90.11,0.0,960.7,41.735,43.438324,-96.69011,1385.16,NaN,,0.0,258.0645,,4 / 19,13423,2018-06-19 15:18:38:286
9.7989,0.1915,-0.0124,9.8081,0.1918,-0.0177,-0.0091,-3.0E-4,0.0052,0.0,-0.0224,0.0085,21.0,-42.8,17.85,18.7,45.13,-1.12,-90.1,0.0,960.73,41.371,43.438324,-96.69011,1385.16,NaN,,0.0,258.0645,,4 / 19,13526,2018-06-19 15:18:38:389
9.7863,0.1947,-4.0E-4,9.8081,0.1921,-0.0187,-0.0217,0.0027,0.0183,-0.0013,-0.0104,0.0101,7.0,-43.05,18.55,18.65,43.64,-1.12,-90.11,0.0,960.67,41.371,43.438324,-96.69011,1385.16,NaN,,0.0,258.0645,,2 / 19,13623,2018-06-19 15:18:38:486
9.7971,0.1986,-0.0114,9.8081,0.1922,-0.0181,-0.0109,0.0064,0.0067,0.0043,-0.0107,0.0096,7.0,-42.95,18.55,18.85,43.64,-1.12,-90.11,0.0,960.67,41.371,43.438324,-96.69011,1385.16,NaN,,0.0,258.0645,,2 / 19,13726,2018-06-19 15:18:38:589
9.7919,0.2051,-0.0124,9.8081,0.1938,-0.022,-0.0162,0.0112,0.0096,0.0037,-0.012,0.0096,7.0,-42.85,17.9,18.9,45.09,-1.13,-90.13,0.0,960.73,41.371,43.438324,-96.69011,1385.16,NaN,,0.0,258.0645,,2 / 19,13823,2018-06-19 15:18:38:686
9.7899,0.2006,-0.021,9.8079,0.1941,-0.0232,-0.018,0.0064,0.0022,0.0019,-0.0083,0.0096,7.0,-43.1,18.25,18.75,45.08,-1.13,-90.14,0.0,960.73,41.576,43.438324,-96.69011,1385.16,NaN,,0.0,258.0645,,2 / 19,13923,2018-06-19 15:18:38:786
9.7988,0.2043,-0.024,9.8079,0.1935,-0.0323,-0.0091,0.0108,0.0084,-0.0056,-0.0154,0.0117,6.0,-43.4,18.55,18.8,43.54,-1.13,-90.19,0.0,960.74,41.576,43.438324,-96.69011,1385.16,NaN,,0.0,258.0645,,2 / 19,14022,2018-06-19 15:18:38:885
9.8004,0.1979,-0.0373,9.8079,0.1934,-0.0362,-0.0075,0.0045,-0.001,0.0019,-0.0021,0.0104,23.0,-43.2,18.4,19.05,44.99,-1.13,-90.21,0.0,960.8,41.576,43.438324,-96.69011,1385.16,NaN,,0.0,258.0645,,2 / 19,14128,2018-06-19 15:18:38:991
9.8021,0.201,-0.0356,9.8079,0.1941,-0.0409,-0.0058,0.0069,0.0052,-8.0E-4,-0.0181,0.0112,6.0,-42.95,17.9,19.15,44.96,-1.13,-90.24,0.0,960.74,41.999,43.438324,-96.69011,1385.16,NaN,,0.0,258.0645,,2 / 19,14223,2018-06-19 15:18:39:086
9.7929,0.1938,-0.0513,9.8079,0.1929,-0.0439,-0.015,9.0E-4,-0.0075,-0.0056,-0.0069,0.0115,22.0,-43.3,18.6,19.35,43.46,-1.13,-90.26,0.0,960.64,41.999,43.438324,-96.69011,1385.16,NaN,,0.0,258.0645,,2 / 19,14327,2018-06-19 15:18:39:190
9.7832,0.1997,-0.0383,9.8079,0.1931,-0.046,-0.0247,0.0066,0.0076,-0.0061,-0.0136,0.0093,22.0,-43.5,19.15,19.3,43.45,-1.13,-90.27,0.0,960.74,41.999,43.438324,-96.69011,1385.16,NaN,,0.0,258.0645,,2 / 19,14422,2018-06-19 15:18:39:285
9.7865,0.1949,-0.0546,9.8079,0.1926,-0.0479,-0.0214,0.0022,-0.0067,8.0E-4,5.0E-4,0.0093,25.0,-43.85,19.8,19.4,42.0,-1.13,-90.28,0.0,960.64,41.999,43.438324,-96.69011,1385.16,NaN,,0.0,258.0645,,2 / 19,14523,2018-06-19 15:18:39:386
9.8034,0.1997,-0.0371,9.8079,0.1934,-0.046,-0.0045,0.0063,0.0088,0.0011,-0.0123,0.0099,19.0,-44.0,20.0,19.5,43.49,-1.13,-90.27,0.0,960.71,42.088,43.438324,-96.69011,1385.16,NaN,,0.0,258.0645,,4 / 19,14622,2018-06-19 15:18:39:485
9.7902,0.2072,-0.0585,9.8079,0.1938,-0.0516,-0.0177,0.0133,-0.0069,-3.0E-4,-0.0107,0.0107,23.0,-44.3,20.6,19.6,42.11,-1.13,-90.3,0.0,960.68,42.088,43.438324,-96.69011,1385.16,NaN,,0.0,258.0645,,4 / 19,14722,2018-06-19 15:18:39:585
9.7989,0.2064,-0.0564,9.8079,0.1941,-0.0561,-0.009,0.0123,-3.0E-4,-0.0021,-0.012,0.0093,21.0,-44.2,20.1,19.2,41.94,-1.13,-90.33,0.0,960.77,42.088,43.438324,-96.69011,1385.16,NaN,,0.0,258.0645,,4 / 19,14823,2018-06-19 15:18:39:686
9.795,0.2,-0.0479,9.8079,0.1949,-0.0539,-0.0129,0.0051,0.006,0.0027,3.0E-4,0.0109,7.0,-44.05,19.4,19.15,43.35,-1.14,-90.31,0.0,960.67,42.088,43.438324,-96.69011,1385.16,NaN,,0.0,258.0645,,4 / 19,14923,2018-06-19 15:18:39:786
9.7837,0.2054,-0.0392,9.8079,0.1953,-0.0482,-0.0242,0.01,0.009,0.0013,0.0,0.0112,7.0,-43.8,19.2,19.1,43.38,-1.14,-90.28,0.0,960.85,41.768,43.438324,-96.69011,1385.16,NaN,,0.0,258.0645,,4 / 19,15023,2018-06-19 15:18:39:886
9.7805,0.181,0.0117,9.8081,0.1877,-0.0277,-0.0275,-0.0067,0.0394,-0.0141,-0.0381,0.0181,21.0,-43.7,19.05,19.2,43.57,-1.1,-90.16,0.0,960.76,41.768,43.438324,-96.69011,1385.16,NaN,,0.0,258.0645,,4 / 19,15123,2018-06-19 15:18:39:986
9.7834,0.2164,-0.2088,9.8082,0.1769,-0.0522,-0.0248,0.0395,-0.1566,0.0075,0.0197,0.025,19.0,-43.6,19.15,19.0,43.47,-1.03,-90.31,0.0,960.73,41.768,43.438324,-96.69011,1385.16,NaN,,0.0,258.0645,,4 / 19,15223,2018-06-19 15:18:40:086
9.7462,0.1566,-0.0358,9.8082,0.1751,0.0552,-0.062,-0.0186,-0.091,0.0458,0.171,0.0059,21.0,-43.75,19.15,18.95,44.22,-1.02,-89.68,0.0,960.73,41.768,43.438324,-96.69011,1385.16,NaN,,0.0,258.0645,,4 / 19,15323,2018-06-19 15:18:40:186
9.797,0.1799,0.2335,9.8039,0.1793,0.2961,-0.0069,6.0E-4,-0.0626,0.0738,0.1792,0.0144,25.0,-43.75,18.7,18.6,45.76,-1.05,-88.27,0.0,960.76,42.409,43.438324,-96.69011,1385.16,NaN,,0.0,258.0645,,4 / 19,15423,2018-06-19 15:18:40:286
9.7585,0.2111,0.3456,9.7982,0.1789,0.4464,-0.0397,0.0322,-0.1007,0.081,0.2152,0.0178,22.0,-43.95,19.2,18.5,46.69,-1.04,-87.39,0.0,960.76,42.409,43.438324,-96.69011,1385.16,NaN,,0.0,258.0645,,4 / 19,15523,2018-06-19 15:18:40:386
9.7501,0.1681,0.7579,9.781,0.1753,0.7332,-0.0308,-0.0072,0.0247,-0.0083,0.0887,0.013,24.0,-44.15,18.75,17.75,47.07,-1.02,-85.71,0.0,960.76,42.409,43.438324,-96.69011,1385.16,NaN,,0.0,258.0645,,4 / 19,15622,2018-06-19 15:18:40:485
9.7507,0.2088,0.6919,9.773,0.1744,0.8324,-0.0223,0.0344,-0.1406,0.0447,0.1843,0.0162,25.0,-44.0,18.45,17.1,47.79,-1.02,-85.13,0.0,960.82,42.409,43.438324,-96.69011,1385.16,NaN,,0.0,258.0645,,4 / 19,15723,2018-06-19 15:18:40:586
9.7504,0.141,1.0195,9.7498,0.175,1.0704,6.0E-4,-0.034,-0.0509,0.0312,0.1574,0.0093,8.0,-44.45,18.5,16.1,46.36,-1.02,-83.73,0.0,960.69,41.448,43.438324,-96.69011,1385.16,NaN,,0.0,258.0645,,4 / 19,15823,2018-06-19 15:18:40:686
9.7646,0.172,1.1188,9.7392,0.1771,1.1622,0.0254,-0.0051,-0.0434,0.0282,0.1214,0.0123,23.0,-44.5,18.65,15.65,46.89,-1.03,-83.2,0.0,960.72,41.448,43.438324,-96.69011,1385.16,NaN,,0.0,258.0645,,4 / 19,15923,2018-06-19 15:18:40:786
9.7606,0.1678,1.1978,9.7224,0.1772,1.2947,0.0382,-0.0094,-0.0968,0.0075,0.2216,0.0032,8.0,-44.6,18.55,15.15,46.47,-1.04,-82.42,0.0,960.72,41.448,43.438324,-96.69011,1385.16,NaN,,0.0,258.0645,,4 / 19,16023,2018-06-19 15:18:40:886
9.684,0.1846,1.6126,9.6639,0.1868,1.6758,0.0201,-0.0022,-0.0632,0.0059,0.2613,3.0E-4,8.0,-44.75,18.45,13.8,48.82,-1.09,-80.16,0.0,960.76,41.905,43.438324,-96.69011,1385.16,NaN,,0.0,258.0645,,4 / 19,16123,2018-06-19 15:18:40:986
9.6476,0.1909,1.7744,9.6355,0.19,1.8322,0.0121,9.0E-4,-0.0578,0.0037,0.2168,0.0088,26.0,-45.2,18.85,13.2,46.92,-1.11,-79.23,0.0,960.72,41.905,43.438324,-96.69011,1385.16,NaN,,0.0,258.0645,,4 / 19,16223,2018-06-19 15:18:41:086
9.6066,0.2085,2.051,9.5522,0.1956,2.225,0.0543,0.0129,-0.1739,0.0274,0.3547,0.0101,9.0,-45.25,18.5,11.95,47.85,-1.14,-76.89,0.0,960.82,41.905,43.438324,-96.69011,1385.16,NaN,,0.0,258.0645,,4 / 19,16323,2018-06-19 15:18:41:186
9.5415,0.198,2.4086,9.4954,0.1968,2.4564,0.0461,0.0012,-0.0478,-0.0088,0.2834,0.0115,9.0,-45.1,18.0,11.3,49.36,-1.15,-75.5,0.0,960.78,41.905,43.438324,-96.69011,1385.16,NaN,,0.0,258.0645,,4 / 19,16423,2018-06-19 15:18:41:286
9.4472,0.2147,2.7597,9.4045,0.1956,2.7844,0.0427,0.019,-0.0247,0.0176,0.1758,0.0165,10.0,-45.7,18.1,9.75,50.27,-1.14,-73.51,0.0,960.72,42.338,43.438324,-96.69011,1385.16,NaN,,0.0,258.0645,,4 / 19,16523,2018-06-19 15:18:41:386
9.4219,0.2033,2.818,9.3701,0.1959,2.898,0.0518,0.0073,-0.0799,0.0176,0.1798,0.0123,10.0,-45.9,18.0,9.05,49.7,-1.14,-72.81,0.0,960.75,42.338,43.438324,-96.69011,1385.16,NaN,,0.0,258.0645,,4 / 19,16623,2018-06-19 15:18:41:486
9.3826,0.204,2.9381,9.3217,0.1986,3.0496,0.0609,0.0054,-0.1115,0.0117,0.2589,0.0125,11.0,-46.05,17.6,8.4,49.32,-1.16,-71.88,0.0,960.72,42.338,43.438324,-96.69011,1385.16,NaN,,0.0,258.0645,,4 / 19,16723,2018-06-19 15:18:41:586
9.2585,0.2182,3.3063,9.1677,0.2045,3.4849,0.0909,0.0138,-0.1786,0.0626,0.3712,0.0248,17.0,-46.1,17.05,6.9,52.06,-1.19,-69.19,0.0,960.75,42.338,43.438324,-96.69011,1385.16,NaN,,0.0,258.0645,,4 / 19,16823,2018-06-19 15:18:41:686
9.1434,0.1998,3.6421,9.0752,0.2108,3.719,0.0683,-0.0109,-0.0769,0.0501,0.3292,0.0218,26.0,-46.25,17.15,6.2,52.16,-1.23,-67.72,0.0,960.69,42.169,43.438324,-96.69011,1385.16,NaN,,0.0,258.0645,,4 / 19,16922,2018-06-19 15:18:41:785
8.9607,0.2401,4.0423,8.8499,0.2191,4.2266,0.1108,0.021,-0.1843,0.0442,0.4474,0.0226,38.0,-46.15,17.1,4.55,53.7,-1.28,-64.47,0.0,960.72,42.169,43.438324,-96.69011,1385.16,NaN,,0.0,258.0645,,4 / 19,17023,2018-06-19 15:18:41:886
8.8233,0.2202,4.4061,8.7075,0.2256,4.5124,0.1157,-0.0054,-0.1063,0.0205,0.4277,0.0056,72.0,-46.25,17.6,3.5,52.61,-1.32,-62.61,3.1,960.66,42.169,43.438324,-96.69011,1385.16,NaN,,0.0,258.0645,,4 / 19,17123,2018-06-19 15:18:41:986
8.5376,0.2346,4.9138,8.3983,0.2385,5.0641,0.1394,-0.0039,-0.1503,0.016,0.4788,0.0154,43.0,-46.1,17.75,1.1,52.42,-1.39,-58.91,3.1,960.73,41.387,43.438324,-96.69011,1385.16,NaN,,0.0,258.0645,,4 / 19,17223,2018-06-19 15:18:42:086
8.3787,0.2988,5.147,8.2151,0.2446,5.356,0.1636,0.0542,-0.209,0.0578,0.5497,0.0399,43.0,-46.05,17.8,-0.1,52.97,-1.43,-56.9,3.1,960.76,41.387,43.438324,-96.69011,1385.16,NaN,,0.0,258.0645,,4 / 19,17323,2018-06-19 15:18:42:186
8.1263,0.2277,5.6003,7.9916,0.2518,5.6838,0.1347,-0.0241,-0.0835,0.0336,0.5763,0.017,41.0,-46.15,18.1,-1.55,52.82,-1.47,-54.58,3.1,960.79,41.387,43.438324,-96.69011,1385.16,NaN,,0.0,258.0645,,4 / 19,17423,2018-06-19 15:18:42:286
7.7669,0.2732,6.1072,7.6512,0.2614,6.1339,0.1157,0.0118,-0.0268,-0.0091,0.3816,-0.0016,41.0,-46.15,17.75,-4.55,52.58,-1.53,-51.28,3.1,960.73,41.387,43.438324,-96.69011,1385.16,NaN,,0.0,258.0645,,4 / 19,17523,2018-06-19 15:18:42:386
7.6603,0.2828,6.1465,7.4726,0.2652,6.3501,0.1877,0.0175,-0.2036,0.0192,0.4724,0.0168,43.0,-46.05,17.8,-6.0,52.93,-1.55,-49.64,3.1,960.76,40.967,43.438324,-96.69011,1385.16,NaN,,0.0,258.0645,,4 / 19,17623,2018-06-19 15:18:42:486
7.4208,0.2597,6.4312,7.2113,0.27,6.6453,0.2096,-0.0103,-0.2141,-5.0E-4,0.6378,-0.0016,43.0,-45.75,17.4,-7.3,55.25,-1.58,-47.34,3.1,960.76,40.967,43.438324,-96.69011,1385.16,NaN,,0.0,258.0645,,4 / 19,17723,2018-06-19 15:18:42:586
6.8834,0.3266,7.105,6.6186,0.2847,7.2351,0.2648,0.0419,-0.1301,0.0202,0.5579,0.0218,76.0,-45.15,17.35,-10.15,55.64,-1.66,-42.45,3.1,960.79,40.967,43.438324,-96.69011,1385.16,NaN,,0.0,258.0645,,4 / 19,17823,2018-06-19 15:18:42:686
6.5613,0.317,7.3638,6.3281,0.291,7.4903,0.2332,0.026,-0.1265,0.0386,0.575,0.0349,43.0,-44.8,17.3,-11.7,55.76,-1.7,-40.19,3.1,960.86,40.967,43.438324,-96.69011,1385.16,NaN,,0.0,258.0645,,4 / 19,17924,2018-06-19 15:18:42:787
5.9617,0.2777,7.8549,5.6183,0.3034,8.036,0.3434,-0.0257,-0.1811,0.0197,0.6852,0.024,44.0,-43.55,17.1,-14.65,56.54,-1.77,-34.96,3.1,960.77,41.62,43.438324,-96.69011,1385.16,NaN,,0.0,258.0645,,4 / 19,18022,2018-06-19 15:18:42:885
5.5353,0.3199,8.2899,5.2586,0.3028,8.2758,0.2768,0.0171,0.0141,-0.0112,0.5273,0.004,44.0,-43.15,17.7,-16.15,55.4,-1.77,-32.43,3.1,960.74,41.62,43.438324,-96.69011,1385.16,NaN,,0.0,258.0645,,4 / 19,18123,2018-06-19 15:18:42:986
4.9198,0.3375,8.636,4.6613,0.3066,8.6263,0.2585,0.031,0.0097,0.0189,0.4402,0.0373,71.0,-42.15,18.4,-19.4,55.57,-1.79,-28.39,3.1,960.74,41.62,43.438324,-96.69011,1385.16,NaN,,0.0,258.0645,,4 / 19,18223,2018-06-19 15:18:43:086
4.5645,0.3157,8.7869,4.3863,0.3093,8.7692,0.1781,0.0064,0.0177,-0.0189,0.4791,-0.0306,69.0,-41.4,18.4,-20.95,54.91,-1.81,-26.57,3.1,960.74,41.62,43.438324,-96.69011,1385.16,NaN,,0.0,258.0645,,4 / 19,18328,2018-06-19 15:18:43:191
4.0576,0.35,9.0415,3.7367,0.3123,9.065,0.3209,0.0377,-0.0235,-0.0011,0.5324,0.0125,40.0,-40.05,19.4,-23.95,54.06,-1.82,-22.4,3.1,960.84,41.62,43.438324,-96.69011,1385.16,NaN,,0.0,258.0645,,4 / 19,18423,2018-06-19 15:18:43:286
3.6885,0.3372,9.2204,3.3469,0.3126,9.216,0.3416,0.0247,0.0043,-5.0E-4,0.608,0.0184,39.0,-39.2,19.1,-25.1,54.36,-1.83,-19.96,3.1,960.65,41.62,43.438324,-96.69011,1385.16,NaN,,0.0,258.0645,,4 / 19,18528,2018-06-19 15:18:43:391
3.2514,0.298,9.3765,2.9775,0.3063,9.3421,0.2739,-0.0082,0.0344,-0.0144,0.5619,-0.0181,48.0,-38.25,18.95,-26.3,54.59,-1.79,-17.68,3.1,960.75,41.62,43.438324,-96.69011,1385.16,NaN,,0.0,258.0645,,4 / 19,18623,2018-06-19 15:18:43:486
2.4294,0.3299,9.5986,2.0796,0.3006,9.5822,0.3498,0.0293,0.0165,-0.0194,0.7031,-0.0474,39.0,-36.0,18.1,-28.4,56.9,-1.76,-12.25,3.1,960.78,40.703,43.438324,-96.69011,1385.16,NaN,,0.0,258.0645,,4 / 19,18723,2018-06-19 15:18:43:586
2.0335,0.3163,9.8392,1.665,0.2953,9.663,0.3685,0.021,0.1762,-0.012,0.5156,-0.016,35.0,-34.5,17.75,-29.55,56.15,-1.73,-9.78,3.1,960.81,40.703,43.438324,-96.69011,1385.16,NaN,,0.0,258.0645,,4 / 19,18823,2018-06-19 15:18:43:686
1.637,0.3293,9.8425,1.3421,0.2935,9.7133,0.2949,0.0358,0.1292,-0.0085,0.4626,-0.0112,33.0,-33.4,17.5,-30.65,56.2,-1.71,-7.87,3.1,960.72,40.703,43.438324,-96.69011,1385.16,NaN,,0.0,258.0645,,4 / 19,18923,2018-06-19 15:18:43:786
0.874,0.2944,9.9024,0.5076,0.282,9.7928,0.3664,0.0124,0.1096,-0.0157,0.682,-0.0221,35.0,-30.75,16.5,-32.5,58.5,-1.65,-2.97,3.1,960.72,40.703,43.438324,-96.69011,1385.16,NaN,,0.0,258.0645,,4 / 19,19023,2018-06-19 15:18:43:886
0.4196,0.2961,9.9811,0.2992,0.2721,9.8016,0.1203,0.024,0.1795,-0.0072,0.0562,-0.0061,37.0,-28.4,17.05,-34.7,56.25,-1.59,-1.75,3.1,960.79,40.703,43.438324,-96.69011,1385.16,NaN,,0.0,258.0645,,4 / 19,19123,2018-06-19 15:18:43:986
0.3813,0.2774,9.9143,0.2224,0.267,9.8037,0.1588,0.0103,0.1106,-0.0075,0.1324,-0.0229,38.0,-27.55,17.05,-35.65,56.5,-1.56,-1.3,3.1,960.76,41.726,43.438324,-96.69011,1385.16,NaN,,0.0,258.0645,,4 / 19,19223,2018-06-19 15:18:44:086
0.1591,0.2805,9.8862,-9.0E-4,0.2573,9.8066,0.16,0.0232,0.0796,-0.0138,0.2306,-0.0317,37.0,-26.4,17.5,-36.75,53.9,-1.5,0.01,3.1,960.79,41.726,43.438324,-96.69011,1385.16,NaN,,0.0,258.0645,,4 / 19,19323,2018-06-19 15:18:44:186
0.044,0.2983,10.0245,-0.104,0.2543,9.8061,0.148,0.044,0.2184,-0.0045,0.0764,-0.0032,37.0,-25.7,17.4,-37.2,55.78,-1.49,0.61,3.1,960.7,41.726,43.438324,-96.69011,1385.16,NaN,,0.0,258.0645,,4 / 19,19423,2018-06-19 15:18:44:286
-0.0157,0.3015,9.9965,-0.1456,0.2485,9.8057,0.1299,0.053,0.1909,-0.0035,0.0389,-0.0101,38.0,-25.25,17.5,-37.65,53.45,-1.45,0.85,3.1,960.67,41.34,43.438324,-96.69011,1385.16,NaN,,0.0,258.0645,,7 / 19,19523,2018-06-19 15:18:44:386
-0.0753,0.2823,9.9783,-0.1636,0.2515,9.8054,0.0883,0.0308,0.1729,0.0016,0.0077,0.0117,41.0,-24.4,17.15,-37.9,53.9,-1.47,0.96,3.1,960.74,41.34,43.438324,-96.69011,1385.16,NaN,,0.0,258.0645,,7 / 19,19623,2018-06-19 15:18:44:486
-0.0684,0.3566,9.9681,-0.1614,0.2555,9.8052,0.093,0.101,0.1629,-5.0E-4,-0.0077,0.0184,36.0,-24.2,17.4,-38.05,53.87,-1.49,0.94,3.1,960.74,41.34,43.438324,-96.69011,1385.16,NaN,,0.0,258.0645,,7 / 19,19723,2018-06-19 15:18:44:586
-0.1262,0.2658,9.951,-0.1575,0.2512,9.8055,0.0313,0.0147,0.1455,-0.0016,-0.0067,0.0096,37.0,-23.65,17.05,-38.25,53.88,-1.47,0.92,3.1,960.74,41.171,43.438324,-96.69011,1385.16,NaN,,0.0,258.0645,,7 / 19,19823,2018-06-19 15:18:44:686
-0.0967,0.2721,9.9553,-0.1536,0.251,9.8055,0.0569,0.0211,0.1498,-0.0019,-0.0072,0.0112,33.0,-23.3,16.35,-38.45,54.29,-1.47,0.9,3.1,960.71,41.171,43.438324,-96.69011,1385.16,NaN,,0.0,258.0645,,7 / 19,19923,2018-06-19 15:18:44:786
-0.1006,0.3191,9.9378,-0.1479,0.2558,9.8055,0.0473,0.0633,0.1323,0.0029,-0.0051,0.0679,65.0,-23.1,16.8,-38.45,52.67,-1.49,0.86,3.1,960.74,41.171,43.438324,-96.69011,1385.16,NaN,,0.0,258.0645,,7 / 19,20086,2018-06-19 15:18:44:949
-0.1108,0.1868,9.9603,-0.145,0.2522,9.8057,0.0343,-0.0654,0.1546,-0.0011,-0.0088,0.017,65.0,-23.15,16.65,-38.5,52.68,-1.47,0.85,3.1,960.74,41.171,43.438324,-96.69011,1385.16,NaN,,0.0,258.0645,,7 / 19,20123,2018-06-19 15:18:44:986
-0.1115,0.2617,9.9646,-0.1425,0.2519,9.8057,0.031,0.0097,0.159,-5.0E-4,-0.0067,0.0112,66.0,-23.25,16.8,-38.75,52.64,-1.47,0.83,3.1,960.74,41.171,43.438324,-96.69011,1385.16,NaN,,0.0,258.0645,,7 / 19,20223,2018-06-19 15:18:45:086
-0.0951,0.2678,9.9591,-0.1376,0.2533,9.8057,0.0425,0.0145,0.1534,0.0035,-0.0077,0.0109,65.0,-23.2,17.45,-38.55,52.61,-1.48,0.8,3.1,960.78,42.569,43.438324,-96.69011,1385.16,NaN,,0.0,258.0645,,7 / 19,20323,2018-06-19 15:18:45:186
-0.0822,0.2729,9.9664,-0.1341,0.2542,9.8057,0.0519,0.0187,0.1608,8.0E-4,-0.0069,0.0109,65.0,-23.25,17.5,-38.7,51.09,-1.48,0.78,3.1,960.78,42.569,43.438324,-96.69011,1385.16,NaN,,0.0,258.0645,,7 / 19,20423,2018-06-19 15:18:45:286
-0.1016,0.2759,9.9571,-0.1301,0.2566,9.8057,0.0284,0.0193,0.1515,0.0029,-0.0064,0.0117,65.0,-23.0,17.45,-38.6,52.56,-1.5,0.76,3.1,960.75,42.569,43.438324,-96.69011,1385.16,NaN,,0.0,258.0645,,7 / 19,20523,2018-06-19 15:18:45:386
-0.0903,0.282,9.9595,-0.1289,0.2584,9.8057,0.0386,0.0237,0.1539,0.0024,-0.0067,0.012,70.0,-23.0,17.45,-38.55,52.54,-1.51,0.75,3.1,960.72,46.207,43.438324,-96.69011,1385.16,NaN,,0.0,258.0645,,7 / 19,20623,2018-06-19 15:18:45:486
-0.1171,0.2775,9.9413,-0.1262,0.259,9.8057,0.0091,0.0186,0.1356,-0.0011,-0.0061,0.0101,71.0,-23.15,18.2,-37.9,51.05,-1.51,0.74,3.1,960.72,46.207,43.438324,-96.69011,1385.16,NaN,,0.0,258.0645,,7 / 19,20724,2018-06-19 15:18:45:587
-0.098,0.2841,9.9555,-0.1248,0.2594,9.8057,0.0268,0.0247,0.1498,-0.0016,-0.0067,0.0104,66.0,-23.3,18.45,-38.2,51.04,-1.52,0.73,3.1,960.75,46.207,43.438324,-96.69011,1385.16,NaN,,0.0,258.0645,,7 / 19,20823,2018-06-19 15:18:45:686
-0.1148,0.2805,9.9488,-0.1247,0.2603,9.8057,0.0099,0.0202,0.1431,8.0E-4,-0.0059,-8.0E-4,67.0,-23.05,17.8,-38.05,51.03,-1.52,0.73,3.1,960.75,41.929,43.438324,-96.69011,1385.16,NaN,,0.0,258.0645,,7 / 19,20924,2018-06-19 15:18:45:787
-0.1039,0.2847,9.9518,-0.1253,0.2599,9.8057,0.0214,0.0248,0.1461,-0.0016,-0.0067,-0.0051,67.0,-23.3,18.05,-37.95,51.04,-1.52,0.73,3.1,960.72,41.929,43.438324,-96.69011,1385.16,NaN,,0.0,258.0645,,7 / 19,21023,2018-06-19 15:18:45:886
-0.1168,0.2874,9.9534,-0.1248,0.2608,9.8057,0.0081,0.0266,0.1477,0.0016,-0.004,0.0083,64.0,-23.25,17.85,-38.05,51.03,-1.52,0.73,3.1,960.72,41.929,43.438324,-96.69011,1385.16,NaN,,0.0,258.0645,,7 / 19,21123,2018-06-19 15:18:45:986
-0.1175,0.2841,9.9564,-0.1235,0.2615,9.8057,0.006,0.0226,0.1507,-0.0032,-0.0059,0.0186,63.0,-23.05,17.05,-38.35,52.52,-1.53,0.72,3.1,960.82,41.477,43.438324,-96.69011,1385.16,NaN,,0.0,258.0645,,7 / 19,21223,2018-06-19 15:18:46:086
-0.1109,0.2795,9.9561,-0.1232,0.2609,9.8057,0.0123,0.0186,0.1504,-0.0013,-0.0059,0.0048,67.0,-23.1,17.1,-38.4,52.53,-1.52,0.72,3.1,960.79,41.477,43.438324,-96.69011,1385.16,NaN,,0.0,258.0645,,7 / 19,21323,2018-06-19 15:18:46:186
-0.1247,0.2379,9.9661,-0.1325,0.2552,9.8057,0.0078,-0.0174,0.1605,-0.0115,0.0202,-0.0056,71.0,-23.1,17.2,-38.45,52.6,-1.49,0.77,3.1,960.79,41.477,43.438324,-96.69011,1385.16,NaN,,0.0,258.0645,,7 / 19,21423,2018-06-19 15:18:46:286
-0.1781,0.2892,9.951,-0.1771,0.2443,9.8052,-0.001,0.0449,0.1458,-0.008,0.0591,-0.0205,77.0,-23.2,16.65,-38.5,52.87,-1.43,1.03,3.1,960.76,41.477,43.438324,-96.69011,1385.16,NaN,,0.0,258.0645,,7 / 19,21527,2018-06-19 15:18:46:390
-0.1289,0.2917,9.9622,-0.2202,0.2449,9.8045,0.0913,0.0469,0.1578,-0.0072,0.0935,0.0178,65.0,-23.2,17.2,-38.55,53.05,-1.43,1.29,3.1,960.76,40.783,43.438324,-96.69011,1385.16,NaN,,0.0,258.0645,,7 / 19,21623,2018-06-19 15:18:46:486
-0.3158,0.2546,9.9718,-0.4182,0.232,9.7983,0.1024,0.0226,0.1735,-0.0202,0.2621,0.0597,65.0,-23.6,18.25,-38.6,53.62,-1.36,2.44,3.1,960.76,40.783,43.438324,-96.69011,1385.16,NaN,,0.0,258.0645,,7 / 19,21723,2018-06-19 15:18:46:586
-0.4742,0.25,9.9543,-0.5488,0.2298,9.7919,0.0745,0.0202,0.1624,0.0013,0.1814,0.0269,68.0,-23.75,18.45,-38.85,54.17,-1.34,3.21,3.1,960.7,40.783,43.438324,-96.69011,1385.16,NaN,,0.0,258.0645,,7 / 19,21823,2018-06-19 15:18:46:686
-0.9122,0.2497,9.9292,-1.0505,0.2376,9.7506,0.1383,0.0121,0.1786,0.0162,0.5689,-0.0242,74.0,-23.2,18.5,-39.05,53.69,-1.39,6.15,3.1,960.7,41.437,43.438324,-96.69011,1385.16,NaN,,0.0,258.0645,,7 / 19,21923,2018-06-19 15:18:46:786
-1.231,0.2581,9.8666,-1.4423,0.2403,9.7004,0.2112,0.0178,0.1662,-0.0019,0.5124,-0.0064,43.0,-22.55,18.55,-39.3,55.12,-1.4,8.46,3.1,960.71,41.437,43.438324,-96.69011,1385.16,NaN,,0.0,258.0645,,7 / 19,22023,2018-06-19 15:18:46:886
-1.5647,0.2887,9.8212,-1.753,0.2356,9.6491,0.1883,0.0531,0.1721,-0.0096,0.4213,-0.0088,45.0,-21.95,18.85,-39.65,55.43,-1.38,10.3,3.1,960.74,41.437,43.438324,-96.69011,1385.16,NaN,,0.0,258.0645,,7 / 19,22123,2018-06-19 15:18:46:986
-2.1636,0.2465,9.7221,-2.3562,0.2085,9.5205,0.1926,0.038,0.2016,-0.0386,0.3925,0.0546,34.0,-19.45,17.6,-40.35,56.28,-1.22,13.9,3.1,960.77,41.437,43.438324,-96.69011,1385.16,NaN,,0.0,258.0645,,7 / 19,22224,2018-06-19 15:18:47:087
-2.4586,0.2302,9.6512,-2.6311,0.1915,9.4487,0.1724,0.0388,0.2025,-0.0527,0.4352,0.1238,35.0,-18.4,17.45,-41.0,58.05,-1.12,15.56,3.1,960.65,40.653,43.438324,-96.69011,1385.16,NaN,,0.0,258.0645,,7 / 19,22323,2018-06-19 15:18:47:186
-3.0034,0.1991,9.4841,-3.1526,0.1895,9.2876,0.1492,0.0096,0.1965,-0.0027,0.351,0.057,31.0,-15.6,16.7,-41.75,58.34,-1.11,18.75,3.1,960.77,40.653,43.438324,-96.69011,1385.16,NaN,,0.0,258.0645,,7 / 19,22423,2018-06-19 15:18:47:286
-3.321,0.1804,9.4205,-3.446,0.2019,9.1825,0.125,-0.0216,0.238,0.0029,0.5446,0.0498,42.0,-14.35,16.25,-42.1,59.06,-1.18,20.57,3.1,960.74,40.653,43.438324,-96.69011,1385.16,NaN,,0.0,258.0645,,7 / 19,22523,2018-06-19 15:18:47:386
-3.8485,0.2182,9.1771,-3.9886,0.2028,8.9602,0.1401,0.0154,0.2169,0.0136,0.4155,-0.0149,39.0,-11.8,16.0,-42.8,59.58,-1.18,24.0,3.1,960.68,40.653,43.438324,-96.69011,1385.16,NaN,,0.0,258.0645,,7 / 19,22623,2018-06-19 15:18:47:486
-4.0873,0.2256,9.0638,-4.186,0.2096,8.8695,0.0988,0.016,0.1943,-0.004,0.2618,0.0189,33.0,-10.5,15.9,-43.15,58.58,-1.22,25.27,3.1,960.71,40.653,43.438324,-96.69011,1385.16,NaN,,0.0,258.0645,,10 / 19,22723,2018-06-19 15:18:47:586
-4.3175,0.2007,9.0075,-4.4413,0.2132,8.7444,0.1238,-0.0124,0.2632,-0.0024,0.4945,0.0426,35.0,-9.6,16.05,-43.35,59.49,-1.25,26.93,3.1,960.75,41.092,43.438324,-96.69011,1385.16,NaN,,0.0,258.0645,,10 / 19,22823,2018-06-19 15:18:47:686
-5.0036,0.2506,8.5965,-5.2104,0.2133,8.3091,0.2067,0.0373,0.2874,-0.033,0.6133,0.0368,31.0,-6.85,16.4,-43.8,60.29,-1.25,32.09,3.1,960.69,41.092,43.438324,-96.69011,1385.16,NaN,,0.0,258.0645,,10 / 19,22927,2018-06-19 15:18:47:790
-5.3797,0.2221,8.3683,-5.5183,0.2046,8.1082,0.1386,0.0175,0.2602,-0.0123,0.5217,0.0274,37.0,-5.5,16.15,-43.95,59.97,-1.2,34.24,3.1,960.66,41.092,43.438324,-96.69011,1385.16,NaN,,0.0,258.0645,,10 / 19,23023,2018-06-19 15:18:47:886
-6.0033,0.185,7.9853,-6.1937,0.1879,7.6051,0.1904,-0.0028,0.3802,-0.0115,0.8296,0.0202,37.0,-2.55,16.1,-44.45,61.11,-1.1,39.16,3.1,960.75,41.092,43.438324,-96.69011,1385.16,NaN,,0.0,258.0645,,10 / 19,23123,2018-06-19 15:18:47:986
-6.4113,0.2127,7.6236,-6.6077,0.1648,7.249,0.1964,0.0479,0.3747,-0.0485,0.7446,-0.0152,33.0,-0.75,16.2,-44.35,61.45,-0.96,42.35,3.1,960.72,41.263,43.438324,-96.69011,1385.16,NaN,,0.0,258.0645,,10 / 19,23224,2018-06-19 15:18:48:087
-7.203,0.1862,6.8254,-7.4255,0.1522,6.4089,0.2224,0.034,0.4164,0.0162,0.7081,-0.0309,33.0,2.95,17.1,-43.6,60.86,-0.89,49.2,3.1,960.69,41.263,43.438324,-96.69011,1385.16,NaN,,0.0,258.0645,,10 / 19,23323,2018-06-19 15:18:48:186
-7.5856,0.1522,6.3854,-7.7257,0.1513,6.0437,0.1401,9.0E-4,0.3417,0.0479,0.6493,-0.0144,35.0,4.8,17.45,-43.2,60.43,-0.88,51.96,3.1,960.73,41.263,43.438324,-96.69011,1385.16,NaN,,0.0,258.0645,,10 / 19,23425,2018-06-19 15:18:48:288
-8.0765,0.1474,5.7451,-8.1604,0.1528,5.4424,0.084,-0.0054,0.3027,0.0234,0.4477,0.004,32.0,8.35,18.75,-42.1,57.46,-0.89,56.3,3.1,960.7,41.666,43.438324,-96.69011,1385.16,NaN,,0.0,258.0645,,10 / 19,23523,2018-06-19 15:18:48:386
-8.2673,0.1685,5.512,-8.3103,0.1474,5.211,0.043,0.0211,0.301,0.0112,0.3806,-0.0165,27.0,10.2,19.05,-41.6,57.26,-0.86,57.91,3.1,960.79,41.666,43.438324,-96.69011,1385.16,NaN,,0.0,258.0645,,10 / 19,23623,2018-06-19 15:18:48:486
-8.4053,0.1394,5.2674,-8.4378,0.1395,5.0021,0.0325,-1.0E-4,0.2652,-0.0138,0.33,0.0189,29.0,12.2,18.8,-40.85,56.3,-0.81,59.34,3.1,960.73,41.666,43.438324,-96.69011,1385.16,NaN,,0.0,258.0645,,10 / 19,23723,2018-06-19 15:18:48:586
-8.7013,0.1192,4.7763,-8.7054,0.1374,4.5204,0.0042,-0.0183,0.2558,0.0125,0.4304,-5.0E-4,29.0,15.8,18.1,-40.25,56.73,-0.8,62.56,3.1,960.7,41.516,43.438324,-96.69011,1385.16,NaN,,0.0,258.0645,,10 / 19,23823,2018-06-19 15:18:48:686
-8.8155,0.138,4.5615,-8.8333,0.1277,4.2654,0.0178,0.0103,0.2961,0.0093,0.4077,-0.013,32.0,17.25,17.65,-39.8,57.24,-0.75,64.23,3.1,960.73,41.516,43.438324,-96.69011,1385.16,NaN,,0.0,258.0645,,10 / 19,23923,2018-06-19 15:18:48:786
-9.0556,0.1159,4.0383,-9.0619,0.1253,3.7555,0.0063,-0.0094,0.2828,-0.0477,0.379,0.0256,25.0,20.0,16.55,-39.3,58.44,-0.73,67.49,3.1,960.75,41.516,43.438324,-96.69011,1385.16,NaN,,0.0,258.0645,,10 / 19,24023,2018-06-19 15:18:48:886
-9.1529,0.1251,3.7569,-9.1487,0.1257,3.5388,-0.0042,-6.0E-4,0.2181,0.0373,0.3159,0.0045,31.0,21.5,15.9,-38.75,59.96,-0.73,68.85,3.1,960.63,41.047,43.438324,-96.69011,1385.16,NaN,,0.0,258.0645,,10 / 19,24122,2018-06-19 15:18:48:985
-9.3072,0.1214,3.4008,-9.2825,0.1395,3.1706,-0.0247,-0.0181,0.2302,0.0272,0.2882,0.0245,35.0,23.45,16.15,-37.75,59.98,-0.81,71.14,3.1,960.75,41.047,43.438324,-96.69011,1385.16,NaN,,0.0,258.0645,,10 / 19,24223,2018-06-19 15:18:49:086
-9.375,0.1277,3.2165,-9.3472,0.1184,2.9754,-0.0278,0.0093,0.2411,-0.0474,0.3222,-0.0288,33.0,24.1,16.4,-37.05,59.61,-0.69,72.34,3.1,960.69,41.047,43.438324,-96.69011,1385.16,NaN,,0.0,258.0645,,10 / 19,24323,2018-06-19 15:18:49:186
-9.44,0.0645,2.9812,-9.4277,0.0967,2.7104,-0.0123,-0.0322,0.2708,-0.0101,0.4618,0.0096,27.0,24.5,16.9,-36.6,58.82,-0.56,73.96,3.1,960.81,41.189,43.438324,-96.69011,1385.16,NaN,,0.0,258.0645,,10 / 19,24422,2018-06-19 15:18:49:285
-9.5904,0.0927,2.3646,-9.5889,0.0666,2.0702,-0.0015,0.026,0.2944,-0.0088,0.4269,-0.0133,25.0,26.0,17.85,-35.55,58.47,-0.39,77.82,3.1,960.69,41.189,43.438324,-96.69011,1385.16,NaN,,0.0,258.0645,,10 / 19,24523,2018-06-19 15:18:49:386
-9.6458,0.0446,2.0088,-9.6534,0.0497,1.7452,0.0076,-0.0051,0.2636,-0.0402,0.4562,0.0272,29.0,26.55,18.25,-34.7,58.5,-0.29,79.75,3.1,960.81,41.189,43.438324,-96.69011,1385.16,NaN,,0.0,258.0645,,10 / 19,24623,2018-06-19 15:18:49:486
-9.8066,0.1165,1.4514,-9.742,0.1108,1.148,-0.0645,0.0057,0.3034,0.0133,0.3079,-5.0E-4,31.0,28.0,18.65,-33.25,56.73,-0.65,83.28,3.1,960.75,40.852,43.438324,-96.69011,1385.16,NaN,,0.0,258.0645,,10 / 19,24722,2018-06-19 15:18:49:585
-9.8109,0.0922,1.1773,-9.763,0.1018,0.9544,-0.0479,-0.0096,0.2229,-0.02,0.2991,-0.0032,23.0,28.65,19.3,-32.3,56.34,-0.59,84.42,3.1,960.75,40.852,43.438324,-96.69011,1385.16,NaN,,0.0,258.0645,,10 / 19,24823,2018-06-19 15:18:49:686
-9.8856,-0.0082,0.6191,-9.7979,0.0593,0.4866,-0.0877,-0.0675,0.1325,-0.0141,0.3595,-0.0663,27.0,30.7,18.75,-30.25,55.97,-0.35,87.16,3.1,960.62,40.852,43.438324,-96.69011,1385.16,NaN,,0.0,258.0645,,10 / 19,24923,2018-06-19 15:18:49:786
-9.8491,0.053,0.4955,-9.8043,0.0587,0.3331,-0.0448,-0.0057,0.1624,0.0072,0.1704,0.0245,25.0,31.7,18.35,-29.1,56.88,-0.34,88.05,3.1,960.71,40.852,43.438324,-96.69011,1385.16,NaN,,0.0,258.0645,,10 / 19,25023,2018-06-19 15:18:49:886
-9.8729,0.0479,0.3458,-9.807,0.0533,0.2391,-0.0659,-0.0054,0.1067,0.0426,0.0892,-0.0109,19.0,32.45,17.85,-28.2,56.26,-0.31,88.6,3.1,960.68,41.25,43.438324,-96.69011,1385.16,NaN,,0.0,258.0645,,10 / 19,25123,2018-06-19 15:18:49:986
-9.8925,0.0385,0.3018,-9.8094,0.0458,0.0985,-0.0831,-0.0073,0.2033,0.0067,0.1752,-0.0184,21.0,33.75,18.1,-26.55,55.74,-0.27,89.42,3.1,960.74,41.25,43.438324,-96.69011,1385.16,NaN,,0.0,258.0645,,10 / 19,25223,2018-06-19 15:18:50:086
-9.842,0.0033,0.1168,-9.81,0.0199,-0.0217,-0.032,-0.0166,0.1385,-0.0069,0.1651,0.0072,26.0,34.3,17.65,-26.05,55.28,-0.12,90.13,3.1,960.58,41.25,43.438324,-96.69011,1385.16,NaN,,0.0,258.0645,,10 / 19,25323,2018-06-19 15:18:50:186
-9.8345,-0.0157,-0.1895,-9.804,0.0136,-0.3426,-0.0305,-0.0293,0.1531,-0.0344,0.1342,0.0136,22.0,34.85,17.75,-25.35,55.45,-0.08,92.0,3.1,960.7,41.25,43.438324,-96.69011,1385.16,NaN,,0.0,258.0645,,10 / 19,25423,2018-06-19 15:18:50:286
-9.8477,-1.0E-4,-0.3432,-9.8019,0.0256,-0.3974,-0.0458,-0.0257,0.0542,-0.0064,0.0232,0.0298,21.0,35.3,17.7,-24.7,55.58,-0.15,92.32,3.1,960.73,41.3,43.438324,-96.69011,1385.16,NaN,,0.0,258.0645,,10 / 19,25523,2018-06-19 15:18:50:386
-9.8537,0.0132,-0.2844,-9.8052,0.0349,-0.3066,-0.0485,-0.0217,0.0222,-0.012,-0.0615,0.0165,17.0,35.6,17.85,-23.95,54.18,-0.2,91.79,3.1,960.67,41.3,43.438324,-96.69011,1385.16,NaN,,0.0,258.0645,,10 / 19,25624,2018-06-19 15:18:50:487
-9.858,0.0266,-0.2253,-9.806,0.0379,-0.2816,-0.0521,-0.0112,0.0563,-0.0029,-0.024,0.0096,20.0,36.0,17.1,-23.9,55.6,-0.22,91.64,3.1,960.73,41.3,43.438324,-96.69011,1385.16,NaN,,0.0,258.0645,,10 / 19,25723,2018-06-19 15:18:50:586
-9.8637,0.019,-0.2283,-9.8054,0.0349,-0.3007,-0.0584,-0.0159,0.0724,0.0186,0.0511,-0.0019,18.0,36.15,17.15,-23.9,55.69,-0.2,91.76,3.1,960.7,41.3,43.438324,-96.69011,1385.16,NaN,,0.0,258.0645,,10 / 19,25823,2018-06-19 15:18:50:686
-9.8495,0.0075,-0.272,-9.8048,0.0204,-0.3211,-0.0448,-0.0129,0.0491,0.0032,-0.0144,-5.0E-4,22.0,36.65,16.9,-23.35,54.79,-0.12,91.88,3.1,960.73,41.287,43.438324,-96.69011,1385.16,NaN,,0.0,258.0645,,10 / 19,25923,2018-06-19 15:18:50:786
-9.8573,0.0099,-0.2747,-9.8045,0.0226,-0.3331,-0.0528,-0.0127,0.0584,-0.0099,0.0304,0.0109,19.0,37.05,16.3,-23.15,56.44,-0.13,91.95,3.1,960.79,41.287,43.438324,-96.69011,1385.16,NaN,,0.0,258.0645,,10 / 19,26023,2018-06-19 15:18:50:886
-9.8561,-9.0E-4,-0.3444,-9.8022,0.015,-0.3916,-0.0539,-0.0159,0.0472,0.0069,0.028,0.0093,22.0,36.95,16.6,-23.5,55.11,-0.09,92.29,3.1,960.82,41.287,43.438324,-96.69011,1385.16,NaN,,0.0,258.0645,,10 / 19,26123,2018-06-19 15:18:50:986
-9.8585,0.0034,-0.3709,-9.8015,0.0147,-0.411,-0.057,-0.0112,0.0401,0.0067,0.0336,0.013,22.0,37.15,16.35,-23.6,57.84,-0.09,92.4,3.1,960.67,41.278,43.438324,-96.69011,1385.16,NaN,,0.0,258.0645,,10 / 19,26223,2018-06-19 15:18:51:086
-9.8431,-0.0027,-0.4173,-9.7989,0.0136,-0.4675,-0.0442,-0.0163,0.0501,-0.0029,0.0242,0.0138,17.0,37.55,15.6,-23.1,57.07,-0.08,92.73,3.1,960.76,41.278,43.438324,-96.69011,1385.16,NaN,,0.0,258.0645,,10 / 19,26323,2018-06-19 15:18:51:186
-9.8393,-0.0022,-0.4519,-9.7979,0.0154,-0.489,-0.0415,-0.0177,0.0371,0.0043,0.0314,0.0157,19.0,37.5,16.15,-23.05,57.15,-0.09,92.86,3.1,960.61,41.278,43.438324,-96.69011,1385.16,NaN,,0.0,258.0645,,10 / 19,26423,2018-06-19 15:18:51:286
-9.8396,0.0066,-0.4678,-9.7979,0.019,-0.4875,-0.0418,-0.0124,0.0198,0.0011,-0.0296,0.0141,16.0,37.3,16.35,-23.0,57.07,-0.11,92.85,3.1,960.67,41.278,43.438324,-96.69011,1385.16,NaN,,0.0,258.0645,,10 / 19,26523,2018-06-19 15:18:51:386
-9.8519,-0.0121,-0.4067,-9.8001,0.0145,-0.4413,-0.0518,-0.0266,0.0346,-3.0E-4,-0.0123,0.0115,14.0,36.85,16.6,-22.9,55.31,-0.08,92.58,3.1,960.7,41.346,43.438324,-96.69011,1385.16,NaN,,0.0,258.0645,,10 / 19,26623,2018-06-19 15:18:51:486
-9.8371,-0.0055,-0.4158,-9.7995,0.0156,-0.4561,-0.0376,-0.0211,0.0403,0.0064,0.032,0.0149,19.0,37.1,16.3,-22.65,56.97,-0.09,92.66,3.1,960.79,41.346,43.438324,-96.69011,1385.16,NaN,,0.0,258.0645,,10 / 19,26728,2018-06-19 15:18:51:591
-9.8414,0.0103,-0.4705,-9.798,0.0175,-0.4857,-0.0434,-0.0072,0.0153,0.004,-0.0043,0.004,19.0,37.1,16.75,-22.6,55.47,-0.1,92.84,3.1,960.7,41.346,43.438324,-96.69011,1385.16,NaN,,0.0,258.0645,,10 / 19,26823,2018-06-19 15:18:51:686
-9.8491,0.0043,-0.4627,-9.7982,0.0135,-0.4821,-0.0509,-0.0091,0.0195,0.0091,-0.0048,0.0104,20.0,37.15,16.7,-22.6,55.48,-0.08,92.82,3.1,960.71,41.346,43.438324,-96.69011,1385.16,NaN,,0.0,258.0645,,10 / 19,26922,2018-06-19 15:18:51:785
-9.8378,-0.0061,-0.4667,-9.7968,0.015,-0.508,-0.041,-0.0211,0.0413,0.0253,0.0533,0.0189,17.0,37.4,16.2,-22.6,57.17,-0.09,92.97,3.1,960.74,42.074,43.438324,-96.69011,1385.16,NaN,,0.0,258.0645,,10 / 19,27023,2018-06-19 15:18:51:886
-9.8356,0.0045,-0.5393,-9.7946,0.0172,-0.5515,-0.041,-0.0127,0.0121,0.0045,-0.0277,0.0125,24.0,37.75,15.9,-22.5,56.32,-0.1,93.22,3.1,960.71,42.074,43.438324,-96.69011,1385.16,NaN,,0.0,258.0645,,10 / 19,27123,2018-06-19 15:18:51:986
-9.8368,0.0052,-0.5086,-9.7956,0.0162,-0.5326,-0.0412,-0.0109,0.024,0.0045,-0.0165,0.0117,19.0,37.7,15.85,-22.4,56.24,-0.09,93.11,3.1,960.53,42.074,43.438324,-96.69011,1385.16,NaN,,0.0,258.0645,,10 / 19,27223,2018-06-19 15:18:52:086
-9.8322,-0.0037,-0.5224,-9.7955,0.0114,-0.5347,-0.0367,-0.0151,0.0123,-8.0E-4,-0.0051,0.0077,14.0,37.9,15.85,-22.3,56.28,-0.07,93.12,3.1,960.68,42.074,43.438324,-96.69011,1385.16,NaN,,0.0,258.0645,,10 / 19,27322,2018-06-19 15:18:52:185
-9.8384,-0.0042,-0.5206,-9.7952,0.0109,-0.541,-0.0433,-0.0151,0.0204,0.0011,0.0072,0.0099,19.0,37.6,16.75,-22.15,54.69,-0.06,93.16,3.1,960.68,41.296,43.438324,-96.69011,1385.16,NaN,,0.0,258.0645,,10 / 19,27423,2018-06-19 15:18:52:286
-9.8284,-0.0051,-0.5479,-9.7938,0.0109,-0.5634,-0.0346,-0.016,0.0156,-0.0061,0.0123,0.0123,17.0,37.45,16.8,-22.1,54.73,-0.06,93.29,3.1,960.62,41.296,43.438324,-96.69011,1385.16,NaN,,0.0,258.0645,,10 / 19,27523,2018-06-19 15:18:52:386
-9.8432,0.0082,-0.553,-9.7935,0.0157,-0.5681,-0.0497,-0.0075,0.0151,-0.0021,-0.0099,0.0085,16.0,37.45,16.6,-22.25,54.72,-0.09,93.32,3.1,960.69,41.296,43.438324,-96.69011,1385.16,NaN,,0.0,258.0645,,10 / 19,27623,2018-06-19 15:18:52:486
-9.8437,0.0048,-0.5878,-9.7916,0.0142,-0.6023,-0.0521,-0.0094,0.0145,0.0088,0.02,0.0043,21.0,37.7,16.75,-22.1,54.93,-0.08,93.52,3.1,960.69,41.296,43.438343,-96.68991,1384.19,NaN,,0.0,500.0,,11 / 19,27723,2018-06-19 15:18:52:586
-9.8437,0.0048,-0.5878,-9.7916,0.0142,-0.6023,-0.0521,-0.0094,0.0145,0.0088,0.02,0.0043,24.0,37.7,16.75,-22.1,54.93,-0.08,93.52,3.1,960.72,41.072,43.438343,-96.68991,1384.19,NaN,,0.0,500.0,,11 / 19,27823,2018-06-19 15:18:52:686
-9.8313,-0.0109,-0.6049,-9.7902,0.0082,-0.6238,-0.041,-0.0192,0.0189,0.0157,0.0407,0.0075,18.0,37.5,16.75,-22.25,55.05,-0.05,93.65,3.1,960.69,41.072,43.438343,-96.68991,1384.19,NaN,,0.0,500.0,,11 / 19,27923,2018-06-19 15:18:52:786
-9.8301,-0.0069,-0.6631,-9.7872,0.0085,-0.6684,-0.0428,-0.0154,0.0052,3.0E-4,-0.0141,0.0234,11.0,37.5,16.75,-22.45,55.24,-0.05,93.91,3.1,960.72,41.072,43.438343,-96.68991,1384.19,NaN,,0.0,500.0,,11 / 19,28023,2018-06-19 15:18:52:886
-9.8313,-0.007,-0.6619,-9.7881,0.0126,-0.6559,-0.0431,-0.0196,-0.006,3.0E-4,-0.0383,0.0141,20.0,37.3,17.2,-22.35,55.09,-0.07,93.83,3.1,960.69,41.072,43.438343,-96.68991,1384.19,NaN,,0.0,500.0,,11 / 19,28123,2018-06-19 15:18:52:986
-9.8437,0.0078,-0.6456,-9.7899,0.0127,-0.6272,-0.0537,-0.0049,-0.0184,-0.0099,-0.0575,-0.0051,15.0,37.2,17.5,-22.25,53.42,-0.07,93.67,3.1,960.69,41.726,43.438343,-96.68991,1384.19,NaN,,0.0,500.0,,11 / 19,28222,2018-06-19 15:18:53:085
-9.8438,0.0036,-0.6365,-9.7881,0.0115,-0.655,-0.0557,-0.0079,0.0186,0.0154,0.0607,-3.0E-4,14.0,36.7,18.5,-22.55,53.16,-0.07,93.83,3.1,960.79,41.726,43.438343,-96.68991,1384.19,NaN,,0.0,500.0,,11 / 19,28323,2018-06-19 15:18:53:186
-9.8221,-0.016,-0.6844,-9.7855,0.0115,-0.6943,-0.0367,-0.0275,0.0099,0.02,0.0376,0.0277,11.0,36.65,18.95,-22.65,53.32,-0.07,94.06,3.1,960.73,41.726,43.438343,-96.68991,1384.19,NaN,,0.0,500.0,,11 / 19,28423,2018-06-19 15:18:53:286
-9.8348,-0.001,-0.6534,-9.7877,0.0072,-0.6625,-0.0472,-0.0082,0.0091,-0.0056,-0.0309,0.0069,14.0,36.7,18.75,-22.55,53.21,-0.04,93.87,3.1,960.76,42.013,43.438343,-96.68991,1384.19,NaN,,0.0,500.0,,11 / 19,28528,2018-06-19 15:18:53:391
-9.8305,-0.0045,-0.6459,-9.7884,0.0064,-0.6516,-0.0421,-0.0109,0.0057,0.0144,-0.0016,0.0051,18.0,36.85,18.3,-22.7,54.65,-0.04,93.81,3.1,960.76,42.013,43.438343,-96.68991,1384.19,NaN,,0.0,500.0,,11 / 19,28623,2018-06-19 15:18:53:486
-9.8254,-0.0157,-0.6734,-9.7844,0.0037,-0.7086,-0.041,-0.0195,0.0352,0.0123,0.0309,0.0125,20.0,37.25,17.55,-22.55,54.88,-0.02,94.14,3.1,960.79,42.013,43.438343,-96.68991,1384.19,NaN,,0.0,500.0,,11 / 19,28723,2018-06-19 15:18:53:586
-9.819,-0.0223,-0.7302,-9.7832,0.0022,-0.7248,-0.0358,-0.0245,-0.0054,0.0072,-0.02,0.0136,23.0,37.4,16.85,-22.4,55.42,-0.01,94.24,3.1,960.66,40.948,43.438343,-96.68991,1384.19,NaN,,0.0,500.0,,11 / 19,28823,2018-06-19 15:18:53:686
-9.8295,-0.0063,-0.686,-9.7869,0.0022,-0.6729,-0.0425,-0.0085,-0.0132,0.0093,-0.0631,0.0093,20.0,37.65,15.55,-22.25,56.9,-0.01,93.93,3.1,960.66,40.948,43.438343,-96.68991,1384.19,NaN,,0.0,500.0,,11 / 19,28923,2018-06-19 15:18:53:786
-9.8278,-0.0177,-0.6528,-9.7895,-1.0E-4,-0.6362,-0.0383,-0.0175,-0.0166,0.008,-0.0546,0.0152,22.0,37.4,16.2,-21.95,56.7,0.0,93.72,3.1,960.63,40.948,43.438343,-96.68991,1384.19,NaN,,0.0,500.0,,11 / 19,29023,2018-06-19 15:18:53:886
-9.8337,-0.0196,-0.6278,-9.7907,-0.001,-0.6173,-0.043,-0.0186,-0.0105,3.0E-4,-0.0237,0.0091,17.0,37.55,15.95,-21.9,56.7,0.01,93.61,3.1,960.76,40.948,43.438343,-96.68991,1384.19,NaN,,0.0,500.0,,11 / 19,29123,2018-06-19 15:18:53:986
-9.8429,-0.0234,-0.5832,-9.7947,-0.0046,-0.5482,-0.0482,-0.0187,-0.035,-0.0016,-0.1039,0.0043,14.0,37.6,15.7,-21.65,56.44,0.03,93.2,3.1,960.73,41.297,43.438343,-96.68991,1384.19,NaN,,0.0,500.0,,11 / 19,29224,2018-06-19 15:18:54:087
-9.8386,-0.0166,-0.5305,-9.7976,-0.006,-0.494,-0.041,-0.0106,-0.0365,0.0037,-0.0703,0.012,17.0,37.25,16.25,-21.85,56.16,0.03,92.89,3.1,960.7,41.297,43.438343,-96.68991,1384.19,NaN,,0.0,500.0,,11 / 19,29323,2018-06-19 15:18:54:186
-9.8471,-0.0195,-0.4432,-9.8003,-0.0084,-0.4386,-0.0469,-0.0111,-0.0046,0.0109,-0.0178,0.0085,17.0,37.4,16.55,-22.1,54.32,0.05,92.56,3.1,960.67,41.297,43.438343,-96.68991,1384.19,NaN,,0.0,500.0,,11 / 19,29423,2018-06-19 15:18:54:286
-9.8465,-0.024,-0.441,-9.8006,-0.0108,-0.4325,-0.046,-0.0132,-0.0085,0.0088,-0.0218,0.0083,17.0,37.5,16.75,-22.0,54.36,0.06,92.53,3.1,960.7,41.297,43.438343,-96.68991,1384.19,NaN,,0.0,500.0,,11 / 19,29524,2018-06-19 15:18:54:387
-9.8449,-0.0256,-0.416,-9.8034,-0.0127,-0.3607,-0.0415,-0.0129,-0.0552,-0.0216,-0.1561,0.0107,19.0,37.45,16.3,-22.4,55.65,0.07,92.11,3.1,960.7,41.79,43.438343,-96.68991,1384.19,NaN,,0.0,500.0,,1 / 19,29623,2018-06-19 15:18:54:486
-9.8534,-0.0304,-0.326,-9.8073,-0.0147,-0.2328,-0.0461,-0.0157,-0.0933,0.0,-0.2069,0.0099,17.0,37.35,16.4,-22.45,55.12,0.09,91.36,3.1,960.67,41.79,43.438343,-96.68991,1384.19,NaN,,0.0,500.0,,1 / 19,29723,2018-06-19 15:18:54:586
-9.8536,-0.0386,-0.0974,-9.81,-0.0181,-0.0052,-0.0436,-0.0205,-0.0922,0.0176,-0.196,0.0178,18.0,37.25,15.8,-22.85,55.31,0.11,90.03,3.1,960.7,41.79,43.438343,-96.68991,1384.19,NaN,,0.0,500.0,,1 / 19,29823,2018-06-19 15:18:54:686
-9.8741,-0.0272,0.0665,-9.809,-0.0208,0.1461,-0.0651,-0.0064,-0.0796,0.0043,-0.2474,0.0021,17.0,37.25,16.0,-23.0,54.65,0.12,89.15,3.1,960.79,41.79,43.438343,-96.68991,1384.19,NaN,,0.0,500.0,,1 / 19,29923,2018-06-19 15:18:54:786
-9.7735,-0.0406,1.487,-9.6703,-0.034,1.6496,-0.1031,-0.0066,-0.1626,0.0474,-0.3665,-5.0E-4,26.0,34.0,18.6,-26.75,47.92,0.2,80.32,3.1,960.68,40.917,43.438343,-96.68991,1384.19,NaN,,0.0,500.0,,1 / 19,30345,2018-06-19 15:18:55:208
-9.7735,-0.0406,1.487,-9.6703,-0.034,1.6496,-0.1031,-0.0066,-0.1626,0.0474,-0.3665,-5.0E-4,26.0,34.0,18.6,-26.75,47.92,0.2,80.32,3.1,960.68,40.917,43.438343,-96.68991,1384.19,NaN,,0.0,500.0,,1 / 19,30377,2018-06-19 15:18:55:240
-9.7735,-0.0406,1.487,-9.6703,-0.034,1.6496,-0.1031,-0.0066,-0.1626,0.0474,-0.3665,-5.0E-4,26.0,34.0,18.6,-26.75,47.92,0.2,80.32,3.1,960.68,40.917,43.438343,-96.68991,1384.19,NaN,,0.0,500.0,,1 / 19,30387,2018-06-19 15:18:55:250
-9.7735,-0.0406,1.487,-9.6703,-0.034,1.9783,-0.0957,-0.007,-0.1708,0.0421,-0.6796,0.008,29.0,33.3,18.6,-27.7,47.74,0.2,78.37,3.1,960.71,40.917,43.438343,-96.68991,1384.19,NaN,,0.0,500.0,,1 / 19,30405,2018-06-19 15:18:55:268
-9.7042,-0.0406,1.8075,-9.6085,-0.0335,1.9783,-0.0957,-0.007,-0.1708,0.0421,-0.6796,0.008,29.0,33.3,18.6,-27.7,47.74,0.2,78.37,3.1,960.71,40.917,43.438343,-96.68991,1384.19,NaN,,0.0,500.0,,1 / 19,30424,2018-06-19 15:18:55:287
-9.7042,-0.0406,1.8075,-9.6085,-0.0335,1.9783,-0.0957,-0.007,-0.1708,0.0421,-0.6796,0.008,29.0,33.3,18.6,-27.7,47.74,0.2,78.37,3.1,960.74,40.917,43.438343,-96.68991,1384.19,NaN,,0.0,500.0,,1 / 19,30523,2018-06-19 15:18:55:386
-9.3597,-0.025,3.2149,-9.1394,-0.0079,3.5648,-0.2203,-0.0171,-0.35,0.0306,-0.9153,0.0152,19.0,30.9,17.55,-30.4,42.88,0.05,68.69,3.1,960.68,40.917,43.438343,-96.68991,1384.19,NaN,,0.0,500.0,,1 / 19,30623,2018-06-19 15:18:55:486
-9.1858,0.0353,3.7617,-8.8497,0.0052,4.233,-0.3361,0.0301,-0.4714,0.0075,-0.991,0.0253,31.0,30.0,17.3,-31.7,43.09,-0.03,64.44,3.1,960.68,40.917,43.438343,-96.68991,1384.19,NaN,,0.0,500.0,,1 / 19,30723,2018-06-19 15:18:55:586
-8.4517,0.0241,5.2015,-8.0833,0.0269,5.5584,-0.3684,-0.0028,-0.3569,-0.0069,-1.1119,0.0274,29.0,26.8,16.55,-34.1,36.62,-0.16,55.49,3.1,960.68,40.917,43.438343,-96.68991,1384.19,NaN,,0.0,500.0,,3 / 19,30823,2018-06-19 15:18:55:686
-8.0151,0.0211,5.8355,-7.6419,0.0326,6.1512,-0.3732,-0.0115,-0.3157,-0.0317,-1.1097,0.0445,27.0,24.8,16.65,-35.45,34.07,-0.19,51.17,3.1,960.71,40.917,43.438343,-96.68991,1384.19,NaN,,0.0,500.0,,3 / 19,30923,2018-06-19 15:18:55:786
-7.1105,0.0445,6.967,-6.6577,0.0386,7.2048,-0.4528,0.0058,-0.2379,-0.0242,-0.9278,0.0418,34.0,20.15,17.1,-38.25,32.89,-0.23,42.74,3.1,960.65,41.265,43.438343,-96.68991,1384.19,NaN,,0.0,500.0,,3 / 19,31023,2018-06-19 15:18:55:886
-6.6228,0.0656,7.4308,-6.2271,0.0425,7.5801,-0.3958,0.0231,-0.1492,0.0104,-0.7886,0.0189,33.0,17.35,17.4,-39.8,35.5,-0.25,39.4,3.1,960.74,41.265,43.438343,-96.68991,1384.19,NaN,,0.0,500.0,,3 / 19,31123,2018-06-19 15:18:55:986
-6.2324,0.0272,7.7602,-5.8212,0.0525,7.8961,-0.4112,-0.0253,-0.1359,0.029,-0.734,0.0019,29.0,14.75,17.45,-40.95,35.43,-0.31,36.4,3.1,960.61,41.265,43.438343,-96.68991,1384.19,NaN,,0.0,500.0,,3 / 19,31222,2018-06-19 15:18:56:085
-5.4451,0.0662,8.2953,-5.0227,0.0892,8.4263,-0.4224,-0.0231,-0.131,0.0562,-0.9071,0.0256,37.0,9.1,17.8,-42.45,36.86,-0.52,30.8,3.1,960.65,41.265,43.438343,-96.68991,1384.19,NaN,,0.0,500.0,,3 / 19,31323,2018-06-19 15:18:56:186
-4.9629,0.1111,8.6342,-4.4425,0.1097,8.7457,-0.5205,0.0013,-0.1115,0.0152,-1.0525,0.0234,35.0,6.45,17.7,-43.05,37.42,-0.64,26.93,3.1,960.68,41.435,43.438343,-96.68991,1384.19,NaN,,0.0,500.0,,3 / 19,31423,2018-06-19 15:18:56:286
-3.7816,0.1467,9.2316,-3.3354,0.1368,9.2246,-0.4462,0.0099,0.007,0.0093,-0.7585,0.025,35.0,1.2,17.55,-43.55,37.04,-0.8,19.88,3.1,960.71,41.435,43.438343,-96.68991,1384.19,NaN,,0.0,500.0,,3 / 19,31523,2018-06-19 15:18:56:386
-3.2509,0.1422,9.4175,-2.8016,0.1494,9.4002,-0.4494,-0.0072,0.0174,0.0186,-0.8717,0.0226,39.0,-1.35,17.45,-43.6,37.49,-0.87,16.6,3.1,960.71,41.435,43.438343,-96.68991,1384.19,NaN,,0.0,500.0,,5 / 19,31631,2018-06-19 15:18:56:494
-2.361,0.1621,9.6941,-1.9603,0.1784,9.6105,-0.4007,-0.0163,0.0837,0.0234,-0.5089,-0.0224,34.0,-6.4,18.15,-42.65,37.68,-1.04,11.53,3.1,960.64,42.264,43.438343,-96.68991,1384.19,NaN,,0.0,500.0,,5 / 19,31726,2018-06-19 15:18:56:589
-2.0046,0.1979,9.7395,-1.6494,0.1892,9.6684,-0.3552,0.0087,0.0711,0.0242,-0.5819,-0.0458,36.0,-8.65,17.8,-42.45,40.34,-1.11,9.68,3.1,960.73,42.264,43.438343,-96.68991,1384.19,NaN,,0.0,500.0,,5 / 19,31823,2018-06-19 15:18:56:686
-1.5428,0.1756,9.8474,-1.1125,0.2051,9.7444,-0.4304,-0.0295,0.103,0.0352,-0.7444,-0.0282,41.0,-10.9,18.5,-42.0,38.34,-1.2,6.51,3.1,960.67,42.264,43.438343,-96.68991,1384.19,NaN,,0.0,500.0,,5 / 19,31922,2018-06-19 15:18:56:785
-0.8456,0.2037,9.9579,-0.5747,0.2182,9.7907,-0.2709,-0.0145,0.1672,0.004,-0.1883,0.013,60.0,-15.15,19.5,-40.9,39.76,-1.27,3.36,3.1,960.64,42.264,43.438343,-96.68991,1384.19,NaN,,0.0,500.0,,5 / 19,32023,2018-06-19 15:18:56:886
-0.679,0.2226,9.9494,-0.448,0.2238,9.7971,-0.231,-0.0012,0.1522,0.017,-0.2229,0.0136,73.0,-17.15,19.7,-40.25,42.0,-1.31,2.62,3.1,960.7,42.264,43.438343,-96.68991,1384.19,NaN,,0.0,500.0,,5 / 19,32123,2018-06-19 15:18:56:986
-0.3337,0.2367,9.9832,-0.1,0.2488,9.8063,-0.2337,-0.0121,0.1769,0.0399,-0.163,-0.0221,68.0,-20.1,20.15,-39.5,44.2,-1.45,0.58,3.1,960.67,52.558,43.438343,-96.68991,1384.19,NaN,,0.0,500.0,,5 / 19,32223,2018-06-19 15:18:57:086
-0.2373,0.2727,9.9679,-0.082,0.2533,9.8063,-0.1552,0.0195,0.1617,0.0032,-0.0288,-0.037,72.0,-21.05,19.8,-39.1,45.45,-1.48,0.48,3.1,960.69,52.558,43.438343,-96.68991,1384.19,NaN,,0.0,500.0,,5 / 19,32323,2018-06-19 15:18:57:186
-0.1962,0.2885,9.9661,-0.0513,0.2652,9.8063,-0.1449,0.0232,0.1599,0.0165,-0.0583,-0.1286,63.0,-22.65,19.05,-38.35,49.21,-1.55,0.3,3.1,960.66,52.558,43.438343,-96.68991,1384.19,NaN,,0.0,500.0,,5 / 19,32423,2018-06-19 15:18:57:286
-0.1217,0.2482,9.9428,-0.0036,0.2813,9.806,-0.1181,-0.0331,0.1368,0.0186,-0.0679,-0.0818,67.0,-23.1,19.0,-38.1,48.89,-1.64,0.02,3.1,960.63,52.558,43.438343,-96.68991,1384.19,NaN,,0.0,500.0,,5 / 19,32526,2018-06-19 15:18:57:389
-0.0924,0.2456,9.9702,0.0027,0.2795,9.806,-0.0951,-0.0338,0.1642,-5.0E-4,-0.0168,-0.0405,60.0,-23.4,18.35,-37.85,50.32,-1.63,-0.02,3.1,960.78,58.781,43.438343,-96.68991,1384.19,NaN,,0.0,500.0,,7 / 19,32622,2018-06-19 15:18:57:485
-0.041,0.2823,9.9549,4.0E-4,0.2795,9.806,-0.0415,0.0028,0.1489,-3.0E-4,-0.0064,0.0738,64.0,-23.45,17.4,-37.45,51.88,-1.63,0.0,3.1,960.74,58.781,43.438343,-96.68991,1384.19,NaN,,0.0,500.0,,7 / 19,32723,2018-06-19 15:18:57:586
-0.1847,0.2253,9.9461,-0.009,0.2748,9.8061,-0.1757,-0.0495,0.14,-0.0013,-0.0013,0.0115,64.0,-23.6,16.8,-37.45,53.12,-1.61,0.05,3.1,960.71,58.781,43.438343,-96.68991,1384.19,NaN,,0.0,500.0,,7 / 19,32823,2018-06-19 15:18:57:686
-0.1072,0.2747,9.9624,-0.0189,0.2733,9.8061,-0.0883,0.0013,0.1563,0.0016,-0.0072,0.0109,65.0,-23.9,16.8,-37.35,53.18,-1.6,0.11,3.1,960.74,58.781,43.438343,-96.68991,1384.19,NaN,,0.0,500.0,,7 / 19,32922,2018-06-19 15:18:57:785
-0.0995,0.2813,9.9552,-0.0226,0.273,9.8061,-0.0769,0.0082,0.1491,0.0011,-0.0077,0.0107,63.0,-23.9,16.65,-37.35,53.19,-1.59,0.13,3.1,960.67,62.631,43.438343,-96.68991,1384.19,NaN,,0.0,500.0,,7 / 19,33022,2018-06-19 15:18:57:885
-0.1039,0.2778,9.9527,-0.0304,0.2724,9.8061,-0.0735,0.0054,0.1465,-5.0E-4,-0.0096,0.0104,61.0,-23.9,16.7,-37.45,53.23,-1.59,0.18,3.1,960.73,62.631,43.438343,-96.68991,1384.19,NaN,,0.0,500.0,,7 / 19,33123,2018-06-19 15:18:57:986
-0.0934,0.2829,9.9561,-0.032,0.273,9.8061,-0.0614,0.0099,0.15,-0.0011,-0.0083,0.0104,66.0,-24.3,16.95,-37.5,53.24,-1.59,0.19,3.1,960.73,62.631,43.438343,-96.68991,1384.19,NaN,,0.0,500.0,,7 / 19,33222,2018-06-19 15:18:58:085
-0.097,0.2871,9.9579,-0.0355,0.2733,9.8061,-0.0615,0.0138,0.1518,-0.0011,-0.0072,0.0101,64.0,-24.45,17.25,-37.45,53.25,-1.6,0.21,3.1,960.69,62.737,43.438343,-96.68991,1384.19,NaN,,0.0,500.0,,7 / 19,33323,2018-06-19 15:18:58:186
-0.0965,0.2802,9.9576,-0.0392,0.2723,9.8061,-0.0573,0.0079,0.1515,5.0E-4,-0.0067,0.0101,62.0,-24.6,17.35,-37.55,54.34,-1.59,0.23,3.1,960.76,62.737,43.438343,-96.68991,1384.19,NaN,,0.0,500.0,,7 / 19,33423,2018-06-19 15:18:58:286
-0.1066,0.2831,9.9482,-0.0467,0.2702,9.8061,-0.0599,0.0129,0.1421,-0.0067,-0.0069,0.0107,58.0,-24.6,17.75,-37.65,52.91,-1.58,0.27,3.1,960.78,62.737,43.438343,-96.68991,1384.19,NaN,,0.0,500.0,,7 / 19,33523,2018-06-19 15:18:58:386
-0.0982,0.288,9.9527,-0.0479,0.2715,9.8061,-0.0503,0.0165,0.1465,0.0048,-0.0091,0.0109,67.0,-24.7,17.9,-37.55,52.91,-1.59,0.28,3.1,960.78,62.737,43.438343,-96.68991,1384.19,NaN,,0.0,500.0,,7 / 19,33623,2018-06-19 15:18:58:486
-0.0982,0.288,9.9527,-0.0479,0.2715,9.8061,-0.0503,0.0165,0.1465,0.0048,-0.0091,0.0109,67.0,-24.7,17.9,-37.55,52.91,-1.59,0.28,3.1,960.78,62.737,43.438343,-96.68991,1384.19,NaN,,0.0,500.0,,7 / 19,33723,2018-06-19 15:18:58:586
-0.0961,0.282,9.954,-0.051,0.2729,9.806,-0.0451,0.0091,0.148,5.0E-4,-0.0091,-0.0024,65.0,-24.9,18.3,-37.35,52.95,-1.59,0.3,3.1,960.81,63.096,43.438343,-96.68991,1384.19,NaN,,0.0,500.0,,8 / 19,33824,2018-06-19 15:18:58:687
-0.0961,0.282,9.954,-0.051,0.2729,9.806,-0.0451,0.0091,0.148,5.0E-4,-0.0091,-0.0024,58.0,-24.9,18.3,-37.35,52.95,-1.59,0.3,3.1,960.65,63.096,43.438343,-96.68991,1384.19,NaN,,0.0,500.0,,8 / 19,33922,2018-06-19 15:18:58:785
-0.0961,0.282,9.954,-0.051,0.2729,9.806,-0.0451,0.0091,0.148,5.0E-4,-0.0091,-0.0024,53.0,-24.9,18.3,-37.35,52.95,-1.59,0.3,3.1,960.8,63.096,43.438343,-96.68991,1384.19,NaN,,0.0,500.0,,8 / 19,34023,2018-06-19 15:18:58:886
-0.0961,0.282,9.954,-0.051,0.2729,9.806,-0.0451,0.0091,0.148,5.0E-4,-0.0091,-0.0024,50.0,-24.9,18.3,-37.35,52.95,-1.59,0.3,3.1,960.74,41.245,43.438343,-96.68991,1384.19,NaN,,0.0,500.0,,8 / 19,34122,2018-06-19 15:18:58:985
-0.0961,0.282,9.954,-0.051,0.2729,9.806,-0.0451,0.0091,0.148,5.0E-4,-0.0091,-0.0024,57.0,-24.9,18.3,-37.35,52.95,-1.59,0.3,3.1,960.73,41.245,43.438343,-96.68991,1384.19,NaN,,0.0,500.0,,8 / 19,34223,2018-06-19 15:18:59:086
-0.0961,0.282,9.954,-0.051,0.2729,9.806,-0.0451,0.0091,0.148,5.0E-4,-0.0091,-0.0024,51.0,-24.9,18.3,-37.35,52.95,-1.59,0.3,3.1,960.73,41.245,43.438343,-96.68991,1384.19,NaN,,0.0,500.0,,8 / 19,34322,2018-06-19 15:18:59:185
-0.0961,0.282,9.954,-0.051,0.2729,9.806,-0.0451,0.0091,0.148,5.0E-4,-0.0091,-0.0024,43.0,-24.9,18.3,-37.35,52.95,-1.59,0.3,3.1,960.7,47.732,43.438343,-96.68991,1384.19,NaN,,0.0,500.0,,8 / 19,34423,2018-06-19 15:18:59:286
-0.0961,0.282,9.954,-0.051,0.2729,9.806,-0.0451,0.0091,0.148,5.0E-4,-0.0091,-0.0024,33.0,-24.9,18.3,-37.35,52.95,-1.59,0.3,3.1,960.67,47.732,43.438343,-96.68991,1384.19,NaN,,0.0,500.0,,8 / 19,34522,2018-06-19 15:18:59:385
-0.0961,0.282,9.954,-0.051,0.2729,9.806,-0.0451,0.0091,0.148,5.0E-4,-0.0091,-0.0024,26.0,-24.9,18.3,-37.35,52.95,-1.59,0.3,3.1,960.76,47.732,43.438343,-96.68991,1384.19,NaN,,0.0,500.0,,8 / 19,34623,2018-06-19 15:18:59:486
-0.0961,0.282,9.954,-0.051,0.2729,9.806,-0.0451,0.0091,0.148,5.0E-4,-0.0091,-0.0024,28.0,-24.9,18.3,-37.35,52.95,-1.59,0.3,3.1,960.76,41.544,43.438343,-96.68991,1384.19,NaN,,0.0,500.0,,8 / 19,34722,2018-06-19 15:18:59:585
-0.0961,0.282,9.954,-0.051,0.2729,9.806,-0.0451,0.0091,0.148,5.0E-4,-0.0091,-0.0024,24.0,-24.9,18.3,-37.35,52.95,-1.59,0.3,3.1,960.73,41.544,43.438343,-96.68991,1384.19,NaN,,0.0,500.0,,8 / 19,34823,2018-06-19 15:18:59:686
-0.0961,0.282,9.954,-0.051,0.2729,9.806,-0.0451,0.0091,0.148,5.0E-4,-0.0091,-0.0024,23.0,-24.9,18.3,-37.35,52.95,-1.59,0.3,3.1,960.7,41.544,43.438343,-96.68991,1384.19,NaN,,0.0,500.0,,8 / 19,34922,2018-06-19 15:18:59:785
-0.0961,0.282,9.954,-0.051,0.2729,9.806,-0.0451,0.0091,0.148,5.0E-4,-0.0091,-0.0024,21.0,-24.9,18.3,-37.35,52.95,-1.59,0.3,3.1,960.79,41.809,43.438343,-96.68991,1384.19,NaN,,0.0,500.0,,8 / 19,35023,2018-06-19 15:18:59:886
-0.0961,0.282,9.954,-0.051,0.2729,9.806,-0.0451,0.0091,0.148,5.0E-4,-0.0091,-0.0024,16.0,-24.9,18.3,-37.35,52.95,-1.59,0.3,3.1,960.76,41.809,43.438343,-96.68991,1384.19,NaN,,0.0,500.0,,8 / 19,35122,2018-06-19 15:18:59:985
-0.0961,0.282,9.954,-0.051,0.2729,9.806,-0.0451,0.0091,0.148,5.0E-4,-0.0091,-0.0024,20.0,-24.9,18.3,-37.35,52.95,-1.59,0.3,3.1,960.76,41.809,43.438343,-96.68991,1384.19,NaN,,0.0,500.0,,8 / 19,35224,2018-06-19 15:19:00:087
-0.0961,0.282,9.954,-0.051,0.2729,9.806,-0.0451,0.0091,0.148,5.0E-4,-0.0091,-0.0024,12.0,-24.9,18.3,-37.35,52.95,-1.59,0.3,3.1,960.73,42.357,43.438343,-96.68991,1384.19,NaN,,0.0,500.0,,8 / 19,35323,2018-06-19 15:19:00:186
-0.0961,0.282,9.954,-0.051,0.2729,9.806,-0.0451,0.0091,0.148,5.0E-4,-0.0091,-0.0024,107.0,-24.9,18.3,-37.35,52.95,-1.59,0.3,3.1,960.79,42.357,43.438343,-96.68991,1384.19,NaN,,0.0,500.0,,8 / 19,35423,2018-06-19 15:19:00:286
-0.0961,0.282,9.954,-0.051,0.2729,9.806,-0.0451,0.0091,0.148,5.0E-4,-0.0091,-0.0024,110.0,-24.9,18.3,-37.35,52.95,-1.59,0.3,3.1,960.73,42.357,43.438343,-96.68991,1384.19,NaN,,0.0,500.0,,8 / 19,35523,2018-06-19 15:19:00:386
-0.0961,0.282,9.954,-0.051,0.2729,9.806,-0.0451,0.0091,0.148,5.0E-4,-0.0091,-0.0024,103.0,-24.9,18.3,-37.35,52.95,-1.59,0.3,3.1,960.7,42.181,43.438343,-96.68991,1384.19,NaN,,0.0,500.0,,8 / 19,35624,2018-06-19 15:19:00:487
-0.0961,0.282,9.954,-0.051,0.2729,9.806,-0.0451,0.0091,0.148,5.0E-4,-0.0091,-0.0024,199.0,-24.9,18.3,-37.35,52.95,-1.59,0.3,3.1,960.67,42.181,43.438343,-96.68991,1384.19,NaN,,0.0,500.0,,8 / 19,35723,2018-06-19 15:19:00:586
-0.0961,0.282,9.954,-0.051,0.2729,9.806,-0.0451,0.0091,0.148,5.0E-4,-0.0091,-0.0024,70.0,-24.9,18.3,-37.35,52.95,-1.59,0.3,3.1,960.73,42.181,43.438343,-96.68991,1384.19,NaN,,0.0,500.0,,8 / 19,35825,2018-06-19 15:19:00:688
-0.0961,0.282,9.954,-0.051,0.2729,9.806,-0.0451,0.0091,0.148,5.0E-4,-0.0091,-0.0024,64.0,-24.9,18.3,-37.35,52.95,-1.59,0.3,3.1,960.76,42.181,43.438343,-96.68991,1384.19,NaN,,0.0,500.0,,8 / 19,35923,2018-06-19 15:19:00:786
-0.0961,0.282,9.954,-0.051,0.2729,9.806,-0.0451,0.0091,0.148,5.0E-4,-0.0091,-0.0024,35.0,-24.9,18.3,-37.35,52.95,-1.59,0.3,3.1,960.76,41.683,43.438343,-96.68991,1384.19,NaN,,0.0,500.0,,8 / 19,36023,2018-06-19 15:19:00:886
-0.0961,0.282,9.954,-0.051,0.2729,9.806,-0.0451,0.0091,0.148,5.0E-4,-0.0091,-0.0024,30.0,-24.9,18.3,-37.35,52.95,-1.59,0.3,3.1,960.77,41.683,43.438343,-96.68991,1384.19,NaN,,0.0,500.0,,8 / 19,36123,2018-06-19 15:19:00:986
-0.0961,0.282,9.954,-0.051,0.2729,9.806,-0.0451,0.0091,0.148,5.0E-4,-0.0091,-0.0024,20.0,-24.9,18.3,-37.35,52.95,-1.59,0.3,3.1,960.7,41.683,43.438343,-96.68991,1384.19,NaN,,0.0,500.0,,8 / 19,36223,2018-06-19 15:19:01:086
-0.0961,0.282,9.954,-0.051,0.2729,9.806,-0.0451,0.0091,0.148,5.0E-4,-0.0091,-0.0024,23.0,-24.9,18.3,-37.35,52.95,-1.59,0.3,3.1,960.73,41.538,43.438343,-96.68991,1384.19,NaN,,0.0,500.0,,8 / 19,36323,2018-06-19 15:19:01:186
-0.0961,0.282,9.954,-0.051,0.2729,9.806,-0.0451,0.0091,0.148,5.0E-4,-0.0091,-0.0024,22.0,-24.9,18.3,-37.35,52.95,-1.59,0.3,3.1,960.76,41.538,43.438343,-96.68991,1384.19,NaN,,0.0,500.0,,8 / 19,36423,2018-06-19 15:19:01:286
-0.0961,0.282,9.954,-0.051,0.2729,9.806,-0.0451,0.0091,0.148,5.0E-4,-0.0091,-0.0024,24.0,-24.9,18.3,-37.35,52.95,-1.59,0.3,3.1,960.73,41.538,43.438343,-96.68991,1384.19,NaN,,0.0,500.0,,8 / 19,36523,2018-06-19 15:19:01:386
-0.0961,0.282,9.954,-0.051,0.2729,9.806,-0.0451,0.0091,0.148,5.0E-4,-0.0091,-0.0024,18.0,-24.9,18.3,-37.35,52.95,-1.59,0.3,3.1,960.7,41.538,43.438343,-96.68991,1384.19,NaN,,0.0,500.0,,8 / 19,36632,2018-06-19 15:19:01:495
-0.0961,0.282,9.954,-0.051,0.2729,9.806,-0.0451,0.0091,0.148,5.0E-4,-0.0091,-0.0024,20.0,-24.9,18.3,-37.35,52.95,-1.59,0.3,3.1,960.73,41.13,43.438343,-96.68991,1384.19,NaN,,0.0,500.0,,8 / 19,36723,2018-06-19 15:19:01:586
-0.0961,0.282,9.954,-0.051,0.2729,9.806,-0.0451,0.0091,0.148,5.0E-4,-0.0091,-0.0024,22.0,-24.9,18.3,-37.35,52.95,-1.59,0.3,3.1,960.79,41.13,43.438343,-96.68991,1384.19,NaN,,0.0,500.0,,8 / 19,36823,2018-06-19 15:19:01:686
-0.0961,0.282,9.954,-0.051,0.2729,9.806,-0.0451,0.0091,0.148,5.0E-4,-0.0091,-0.0024,23.0,-24.9,18.3,-37.35,52.95,-1.59,0.3,3.1,960.73,41.13,43.438343,-96.68991,1384.19,NaN,,0.0,500.0,,8 / 19,36935,2018-06-19 15:19:01:798
-0.0961,0.282,9.954,-0.051,0.2729,9.806,-0.0451,0.0091,0.148,5.0E-4,-0.0091,-0.0024,15.0,-24.9,18.3,-37.35,52.95,-1.59,0.3,3.1,960.77,41.13,43.438343,-96.68991,1384.19,NaN,,0.0,500.0,,8 / 19,37023,2018-06-19 15:19:01:886
-0.0961,0.282,9.954,-0.051,0.2729,9.806,-0.0451,0.0091,0.148,5.0E-4,-0.0091,-0.0024,15.0,-24.9,18.3,-37.35,52.95,-1.59,0.3,3.1,960.7,41.605,43.438343,-96.68991,1384.19,NaN,,0.0,500.0,,8 / 19,37123,2018-06-19 15:19:01:986
-0.0961,0.282,9.954,-0.051,0.2729,9.806,-0.0451,0.0091,0.148,5.0E-4,-0.0091,-0.0024,17.0,-24.9,18.3,-37.35,52.95,-1.59,0.3,3.1,960.68,41.605,43.438343,-96.68991,1384.19,NaN,,0.0,500.0,,8 / 19,37223,2018-06-19 15:19:02:086
-0.0961,0.282,9.954,-0.051,0.2729,9.806,-0.0451,0.0091,0.148,5.0E-4,-0.0091,-0.0024,15.0,-24.9,18.3,-37.35,52.95,-1.59,0.3,3.1,960.83,41.605,43.438343,-96.68991,1384.19,NaN,,0.0,500.0,,8 / 19,37323,2018-06-19 15:19:02:186
-0.0961,0.282,9.954,-0.051,0.2729,9.806,-0.0451,0.0091,0.148,5.0E-4,-0.0091,-0.0024,16.0,-24.9,18.3,-37.35,52.95,-1.59,0.3,3.1,960.8,41.605,43.438343,-96.68991,1384.19,NaN,,0.0,500.0,,8 / 19,37422,2018-06-19 15:19:02:285
-0.0961,0.282,9.954,-0.051,0.2729,9.806,-0.0451,0.0091,0.148,5.0E-4,-0.0091,-0.0024,13.0,-24.9,18.3,-37.35,52.95,-1.59,0.3,3.1,960.74,41.334,43.438343,-96.68991,1384.19,NaN,,0.0,500.0,,8 / 19,37527,2018-06-19 15:19:02:390
-0.0961,0.282,9.954,-0.051,0.2729,9.806,-0.0451,0.0091,0.148,5.0E-4,-0.0091,-0.0024,11.0,-24.9,18.3,-37.35,52.95,-1.59,0.3,3.1,960.65,41.334,43.438343,-96.68991,1384.19,NaN,,0.0,500.0,,2 / 19,37623,2018-06-19 15:19:02:486
-0.0961,0.282,9.954,-0.051,0.2729,9.806,-0.0451,0.0091,0.148,5.0E-4,-0.0091,-0.0024,20.0,-24.9,18.3,-37.35,52.95,-1.59,0.3,3.1,960.71,41.334,43.438343,-96.68991,1384.19,NaN,,0.0,500.0,,2 / 19,37723,2018-06-19 15:19:02:586
-0.0961,0.282,9.954,-0.051,0.2729,9.806,-0.0451,0.0091,0.148,5.0E-4,-0.0091,-0.0024,15.0,-24.9,18.3,-37.35,52.95,-1.59,0.3,3.1,960.77,40.938,43.438343,-96.68991,1384.19,NaN,,0.0,500.0,,2 / 19,37823,2018-06-19 15:19:02:686
-0.0961,0.282,9.954,-0.051,0.2729,9.806,-0.0451,0.0091,0.148,5.0E-4,-0.0091,-0.0024,17.0,-24.9,18.3,-37.35,52.95,-1.59,0.3,3.1,960.71,40.938,43.438343,-96.68991,1384.19,NaN,,0.0,500.0,,2 / 19,37923,2018-06-19 15:19:02:786
-0.0961,0.282,9.954,-0.051,0.2729,9.806,-0.0451,0.0091,0.148,5.0E-4,-0.0091,-0.0024,11.0,-24.9,18.3,-37.35,52.95,-1.59,0.3,3.1,960.77,40.938,43.438343,-96.68991,1384.19,NaN,,0.0,500.0,,2 / 19,38023,2018-06-19 15:19:02:886
-0.0961,0.282,9.954,-0.051,0.2729,9.806,-0.0451,0.0091,0.148,5.0E-4,-0.0091,-0.0024,12.0,-24.9,18.3,-37.35,52.95,-1.59,0.3,3.1,960.65,40.938,43.438343,-96.68991,1384.19,NaN,,0.0,500.0,,2 / 19,38123,2018-06-19 15:19:02:986
-0.0961,0.282,9.954,-0.051,0.2729,9.806,-0.0451,0.0091,0.148,5.0E-4,-0.0091,-0.0024,13.0,-24.9,18.3,-37.35,52.95,-1.59,0.3,3.1,960.83,41.679,43.438343,-96.68991,1384.19,NaN,,0.0,500.0,,2 / 19,38223,2018-06-19 15:19:03:086
-0.0961,0.282,9.954,-0.051,0.2729,9.806,-0.0451,0.0091,0.148,5.0E-4,-0.0091,-0.0024,15.0,-24.9,18.3,-37.35,52.95,-1.59,0.3,3.1,960.71,41.679,43.438343,-96.68991,1384.19,NaN,,0.0,500.0,,2 / 19,38328,2018-06-19 15:19:03:191
-0.0961,0.282,9.954,-0.051,0.2729,9.806,-0.0451,0.0091,0.148,5.0E-4,-0.0091,-0.0024,9.0,-24.9,18.3,-37.35,52.95,-1.59,0.3,3.1,960.74,41.679,43.438343,-96.68991,1384.19,NaN,,0.0,500.0,,2 / 19,38423,2018-06-19 15:19:03:286
-0.0961,0.282,9.954,-0.051,0.2729,9.806,-0.0451,0.0091,0.148,5.0E-4,-0.0091,-0.0024,14.0,-24.9,18.3,-37.35,52.95,-1.59,0.3,3.1,960.81,41.679,43.438343,-96.68991,1384.19,NaN,,0.0,500.0,,2 / 19,38523,2018-06-19 15:19:03:386
-0.0961,0.282,9.954,-0.051,0.2729,9.806,-0.0451,0.0091,0.148,5.0E-4,-0.0091,-0.0024,10.0,-24.9,18.3,-37.35,52.95,-1.59,0.3,3.1,960.65,40.925,43.438343,-96.68991,1384.19,NaN,,0.0,500.0,,5 / 19,38623,2018-06-19 15:19:03:486
-0.0961,0.282,9.954,-0.051,0.2729,9.806,-0.0451,0.0091,0.148,5.0E-4,-0.0091,-0.0024,17.0,-24.9,18.3,-37.35,52.95,-1.59,0.3,3.1,960.81,40.925,43.438343,-96.68991,1384.19,NaN,,0.0,500.0,,5 / 19,38722,2018-06-19 15:19:03:585
-0.0961,0.282,9.954,-0.051,0.2729,9.806,-0.0451,0.0091,0.148,5.0E-4,-0.0091,-0.0024,17.0,-24.9,18.3,-37.35,52.95,-1.59,0.3,3.1,960.75,40.925,43.438343,-96.68991,1384.19,NaN,,0.0,500.0,,5 / 19,38823,2018-06-19 15:19:03:686
-0.0961,0.282,9.954,-0.051,0.2729,9.806,-0.0451,0.0091,0.148,5.0E-4,-0.0091,-0.0024,19.0,-24.9,18.3,-37.35,52.95,-1.59,0.3,3.1,960.66,41.276,43.438343,-96.68991,1384.19,NaN,,0.0,500.0,,5 / 19,38923,2018-06-19 15:19:03:786
-0.0961,0.282,9.954,-0.051,0.2729,9.806,-0.0451,0.0091,0.148,5.0E-4,-0.0091,-0.0024,17.0,-24.9,18.3,-37.35,52.95,-1.59,0.3,3.1,960.78,41.276,43.438343,-96.68991,1384.19,NaN,,0.0,500.0,,5 / 19,39023,2018-06-19 15:19:03:886
-0.0961,0.282,9.954,-0.051,0.2729,9.806,-0.0451,0.0091,0.148,5.0E-4,-0.0091,-0.0024,16.0,-24.9,18.3,-37.35,52.95,-1.59,0.3,3.1,960.84,41.276,43.438343,-96.68991,1384.19,NaN,,0.0,500.0,,5 / 19,39123,2018-06-19 15:19:03:986
-0.0961,0.282,9.954,-0.051,0.2729,9.806,-0.0451,0.0091,0.148,5.0E-4,-0.0091,-0.0024,13.0,-24.9,18.3,-37.35,52.95,-1.59,0.3,3.1,960.81,41.276,43.438343,-96.68991,1384.19,NaN,,0.0,500.0,,5 / 19,39223,2018-06-19 15:19:04:086
-0.0961,0.282,9.954,-0.051,0.2729,9.806,-0.0451,0.0091,0.148,5.0E-4,-0.0091,-0.0024,20.0,-24.9,18.3,-37.35,52.95,-1.59,0.3,3.1,960.81,41.18,43.438343,-96.68991,1384.19,NaN,,0.0,500.0,,5 / 19,39326,2018-06-19 15:19:04:189
-0.0961,0.282,9.954,-0.051,0.2729,9.806,-0.0451,0.0091,0.148,5.0E-4,-0.0091,-0.0024,16.0,-24.9,18.3,-37.35,52.95,-1.59,0.3,3.1,960.72,41.18,43.438343,-96.68991,1384.19,NaN,,0.0,500.0,,5 / 19,39423,2018-06-19 15:19:04:286
-0.0961,0.282,9.954,-0.051,0.2729,9.806,-0.0451,0.0091,0.148,5.0E-4,-0.0091,-0.0024,20.0,-24.9,18.3,-37.35,52.95,-1.59,0.3,3.1,960.84,41.18,43.438343,-96.68991,1384.19,NaN,,0.0,500.0,,7 / 19,39523,2018-06-19 15:19:04:386
-0.0961,0.282,9.954,-0.051,0.2729,9.806,-0.0451,0.0091,0.148,5.0E-4,-0.0091,-0.0024,20.0,-24.9,18.3,-37.35,52.95,-1.59,0.3,3.1,960.72,41.18,43.438343,-96.68991,1384.19,NaN,,0.0,500.0,,7 / 19,39623,2018-06-19 15:19:04:486
-0.0961,0.282,9.954,-0.051,0.2729,9.806,-0.0451,0.0091,0.148,5.0E-4,-0.0091,-0.0024,22.0,-24.9,18.3,-37.35,52.95,-1.59,0.3,3.1,960.72,41.471,43.438343,-96.68991,1384.19,NaN,,0.0,500.0,,7 / 19,39726,2018-06-19 15:19:04:589
-0.0961,0.282,9.954,-0.051,0.2729,9.806,-0.0451,0.0091,0.148,5.0E-4,-0.0091,-0.0024,17.0,-24.9,18.3,-37.35,52.95,-1.59,0.3,3.1,960.81,41.471,43.438343,-96.68991,1384.19,NaN,,0.0,500.0,,7 / 19,39823,2018-06-19 15:19:04:686
-0.0961,0.282,9.954,-0.051,0.2729,9.806,-0.0451,0.0091,0.148,5.0E-4,-0.0091,-0.0024,20.0,-24.9,18.3,-37.35,52.95,-1.59,0.3,3.1,960.8,41.471,43.438343,-96.68991,1384.19,NaN,,0.0,500.0,,7 / 19,39927,2018-06-19 15:19:04:790
-0.0961,0.282,9.954,-0.051,0.2729,9.806,-0.0451,0.0091,0.148,5.0E-4,-0.0091,-0.0024,153.0,-24.9,18.3,-37.35,52.95,-1.59,0.3,3.1,960.8,44.005,43.438343,-96.68991,1384.19,NaN,,0.0,500.0,,7 / 19,40328,2018-06-19 15:19:05:191
-0.0961,0.282,9.954,-0.051,0.2729,9.806,-0.0451,0.0091,0.148,5.0E-4,-0.0091,-0.0024,153.0,-24.9,18.3,-37.35,52.95,-1.59,0.3,3.1,960.8,44.005,43.438343,-96.68991,1384.19,NaN,,0.0,500.0,,7 / 19,40329,2018-06-19 15:19:05:192
-0.0961,0.282,9.954,-0.051,0.2729,9.806,-0.0451,0.0091,0.148,5.0E-4,-0.0091,-0.0024,153.0,-24.9,18.3,-37.35,52.95,-1.59,0.3,3.1,960.8,44.005,43.438343,-96.68991,1384.19,NaN,,0.0,500.0,,7 / 19,40331,2018-06-19 15:19:05:194
-0.0961,0.282,9.954,-0.051,0.2729,9.806,-0.0451,0.0091,0.148,5.0E-4,-0.0091,-0.0024,153.0,-24.9,18.3,-37.35,52.95,-1.59,0.3,3.1,960.8,44.005,43.438343,-96.68991,1384.19,NaN,,0.0,500.0,,7 / 19,40332,2018-06-19 15:19:05:195
-0.0961,0.282,9.954,-0.051,0.2729,9.806,-0.0451,0.0091,0.148,5.0E-4,-0.0091,-0.0024,153.0,-24.9,18.3,-37.35,52.95,-1.59,0.3,3.1,960.8,44.005,43.438343,-96.68991,1384.19,NaN,,0.0,500.0,,7 / 19,40423,2018-06-19 15:19:05:286
-0.0961,0.282,9.954,-0.051,0.2729,9.806,-0.0451,0.0091,0.148,5.0E-4,-0.0091,-0.0024,179.0,-24.9,18.3,-37.35,52.95,-1.59,0.3,3.1,960.7,44.005,43.438343,-96.68991,1384.19,NaN,,0.0,500.0,,7 / 19,40526,2018-06-19 15:19:05:389
-0.0961,0.282,9.954,-0.051,0.2729,9.806,-0.0451,0.0091,0.148,5.0E-4,-0.0091,-0.0024,179.0,-24.9,18.3,-37.35,52.95,-1.59,0.3,3.1,960.7,44.005,43.438343,-96.68991,1384.19,NaN,,0.0,500.0,,7 / 19,40623,2018-06-19 15:19:05:486
-0.0961,0.282,9.954,-0.051,0.2729,9.806,-0.0451,0.0091,0.148,5.0E-4,-0.0091,-0.0024,179.0,-24.9,18.3,-37.35,52.95,-1.59,0.3,3.1,960.7,44.005,43.438343,-96.68991,1384.19,NaN,,0.0,500.0,,7 / 19,40723,2018-06-19 15:19:05:586
-0.0961,0.282,9.954,-0.051,0.2729,9.806,-0.0451,0.0091,0.148,5.0E-4,-0.0091,-0.0024,179.0,-24.9,18.3,-37.35,52.95,-1.59,0.3,3.1,960.7,44.005,43.438343,-96.68991,1384.19,NaN,,0.0,500.0,,7 / 19,40824,2018-06-19 15:19:05:687
-0.0961,0.282,9.954,-0.051,0.2729,9.806,-0.0451,0.0091,0.148,5.0E-4,-0.0091,-0.0024,179.0,-24.9,18.3,-37.35,52.95,-1.59,0.3,3.1,960.7,44.005,43.438343,-96.68991,1384.19,NaN,,0.0,500.0,,7 / 19,40927,2018-06-19 15:19:05:790
-0.0961,0.282,9.954,-0.051,0.2729,9.806,-0.0451,0.0091,0.148,5.0E-4,-0.0091,-0.0024,179.0,-24.9,18.3,-37.35,52.95,-1.59,0.3,3.1,960.7,44.005,43.438343,-96.68991,1384.19,NaN,,0.0,500.0,,7 / 19,41023,2018-06-19 15:19:05:886
-0.0961,0.282,9.954,-0.051,0.2729,9.806,-0.0451,0.0091,0.148,5.0E-4,-0.0091,-0.0024,179.0,-24.9,18.3,-37.35,52.95,-1.59,0.3,3.1,960.7,44.005,43.438343,-96.68991,1384.19,NaN,,0.0,500.0,,7 / 19,41126,2018-06-19 15:19:05:989
-0.0961,0.282,9.954,-0.051,0.2729,9.806,-0.0451,0.0091,0.148,5.0E-4,-0.0091,-0.0024,179.0,-24.9,18.3,-37.35,52.95,-1.59,0.3,3.1,960.7,44.005,43.438343,-96.68991,1384.19,NaN,,0.0,500.0,,7 / 19,41223,2018-06-19 15:19:06:086
-0.0961,0.282,9.954,-0.051,0.2729,9.806,-0.0451,0.0091,0.148,5.0E-4,-0.0091,-0.0024,179.0,-24.9,18.3,-37.35,52.95,-1.59,0.3,3.1,960.7,44.005,43.438343,-96.68991,1384.19,NaN,,0.0,500.0,,7 / 19,41324,2018-06-19 15:19:06:187
-0.0961,0.282,9.954,-0.051,0.2729,9.806,-0.0451,0.0091,0.148,5.0E-4,-0.0091,-0.0024,179.0,-24.9,18.3,-37.35,52.95,-1.59,0.3,3.1,960.7,44.005,43.438343,-96.68991,1384.19,NaN,,0.0,500.0,,7 / 19,41423,2018-06-19 15:19:06:286
-0.0961,0.282,9.954,-0.051,0.2729,9.806,-0.0451,0.0091,0.148,5.0E-4,-0.0091,-0.0024,179.0,-24.9,18.3,-37.35,52.95,-1.59,0.3,3.1,960.7,44.005,43.438343,-96.68991,1384.19,NaN,,0.0,500.0,,7 / 19,41523,2018-06-19 15:19:06:386
-0.0961,0.282,9.954,-0.051,0.2729,9.806,-0.0451,0.0091,0.148,5.0E-4,-0.0091,-0.0024,179.0,-24.9,18.3,-37.35,52.95,-1.59,0.3,3.1,960.7,44.005,43.438343,-96.68991,1384.19,NaN,,0.0,500.0,,7 / 19,41623,2018-06-19 15:19:06:486
-0.0961,0.282,9.954,-0.051,0.2729,9.806,-0.0451,0.0091,0.148,5.0E-4,-0.0091,-0.0024,179.0,-24.9,18.3,-37.35,52.95,-1.59,0.3,3.1,960.7,44.005,43.438343,-96.68991,1384.19,NaN,,0.0,500.0,,7 / 19,41723,2018-06-19 15:19:06:586
-0.0961,0.282,9.954,-0.051,0.2729,9.806,-0.0451,0.0091,0.148,5.0E-4,-0.0091,-0.0024,179.0,-24.9,18.3,-37.35,52.95,-1.59,0.3,3.1,960.7,44.005,43.438343,-96.68991,1384.19,NaN,,0.0,500.0,,7 / 19,41822,2018-06-19 15:19:06:685
-0.0961,0.282,9.954,-0.051,0.2729,9.806,-0.0451,0.0091,0.148,5.0E-4,-0.0091,-0.0024,179.0,-24.9,18.3,-37.35,52.95,-1.59,0.3,3.1,960.7,44.005,43.438343,-96.68991,1384.19,NaN,,0.0,500.0,,7 / 19,41923,2018-06-19 15:19:06:786
-0.0961,0.282,9.954,-0.051,0.2729,9.806,-0.0451,0.0091,0.148,5.0E-4,-0.0091,-0.0024,104.0,-24.9,18.3,-37.35,52.95,-1.59,0.3,3.1,960.7,44.005,43.438343,-96.68991,1384.19,NaN,,0.0,500.0,,7 / 19,42023,2018-06-19 15:19:06:886
-0.0961,0.282,9.954,-0.051,0.2729,9.806,-0.0451,0.0091,0.148,5.0E-4,-0.0091,-0.0024,81.0,-24.9,18.3,-37.35,52.95,-1.59,0.3,3.1,960.77,44.005,43.438343,-96.68991,1384.19,NaN,,0.0,500.0,,7 / 19,42123,2018-06-19 15:19:06:986
-0.0961,0.282,9.954,-0.051,0.2729,9.806,-0.0451,0.0091,0.148,5.0E-4,-0.0091,-0.0024,70.0,-24.9,18.3,-37.35,52.95,-1.59,0.3,3.1,960.8,41.271,43.438343,-96.68991,1384.19,NaN,,0.0,500.0,,7 / 19,42223,2018-06-19 15:19:07:086
-0.0961,0.282,9.954,-0.051,0.2729,9.806,-0.0451,0.0091,0.148,5.0E-4,-0.0091,-0.0024,66.0,-24.9,18.3,-37.35,52.95,-1.59,0.3,3.1,960.71,41.271,43.438343,-96.68991,1384.19,NaN,,0.0,500.0,,7 / 19,42322,2018-06-19 15:19:07:185
-0.0961,0.282,9.954,-0.051,0.2729,9.806,-0.0451,0.0091,0.148,5.0E-4,-0.0091,-0.0024,63.0,-24.9,18.3,-37.35,52.95,-1.59,0.3,3.1,960.8,41.271,43.438343,-96.68991,1384.19,NaN,,0.0,500.0,,7 / 19,42423,2018-06-19 15:19:07:286
-0.0961,0.282,9.954,-0.051,0.2729,9.806,-0.0451,0.0091,0.148,5.0E-4,-0.0091,-0.0024,64.0,-24.9,18.3,-37.35,52.95,-1.59,0.3,3.1,960.68,41.624,43.438343,-96.68991,1384.19,NaN,,0.0,500.0,,7 / 19,42523,2018-06-19 15:19:07:386
-0.0961,0.282,9.954,-0.051,0.2729,9.806,-0.0451,0.0091,0.148,5.0E-4,-0.0091,-0.0024,66.0,-24.9,18.3,-37.35,52.95,-1.59,0.3,3.1,960.8,41.624,43.438343,-96.68991,1384.19,NaN,,0.0,500.0,,7 / 19,42623,2018-06-19 15:19:07:486
-0.0961,0.282,9.954,-0.051,0.2729,9.806,-0.0451,0.0091,0.148,5.0E-4,-0.0091,-0.0024,64.0,-24.9,18.3,-37.35,52.95,-1.59,0.3,3.1,960.77,41.624,43.438343,-96.68991,1384.19,NaN,,0.0,500.0,,7 / 19,42723,2018-06-19 15:19:07:586
-0.0961,0.282,9.954,-0.051,0.2729,9.806,-0.0451,0.0091,0.148,5.0E-4,-0.0091,-0.0024,66.0,-24.9,18.3,-37.35,52.95,-1.59,0.3,3.1,960.76,41.728,43.438343,-96.68991,1384.19,NaN,,0.0,500.0,,7 / 19,42823,2018-06-19 15:19:07:686
-0.0961,0.282,9.954,-0.051,0.2729,9.806,-0.0451,0.0091,0.148,5.0E-4,-0.0091,-0.0024,64.0,-24.9,18.3,-37.35,52.95,-1.59,0.3,3.1,960.73,41.728,43.438343,-96.68991,1384.19,NaN,,0.0,500.0,,7 / 19,42923,2018-06-19 15:19:07:786
-0.0961,0.282,9.954,-0.051,0.2729,9.806,-0.0451,0.0091,0.148,5.0E-4,-0.0091,-0.0024,65.0,-24.9,18.3,-37.35,52.95,-1.59,0.3,3.1,960.73,41.728,43.438343,-96.68991,1384.19,NaN,,0.0,500.0,,7 / 19,43023,2018-06-19 15:19:07:886
-0.0961,0.282,9.954,-0.051,0.2729,9.806,-0.0451,0.0091,0.148,5.0E-4,-0.0091,-0.0024,40.0,-24.9,18.3,-37.35,52.95,-1.59,0.3,3.1,960.76,47.556,43.438343,-96.68991,1384.19,NaN,,0.0,500.0,,7 / 19,43123,2018-06-19 15:19:07:986
-0.0961,0.282,9.954,-0.051,0.2729,9.806,-0.0451,0.0091,0.148,5.0E-4,-0.0091,-0.0024,42.0,-24.9,18.3,-37.35,52.95,-1.59,0.3,3.1,960.73,47.556,43.438343,-96.68991,1384.19,NaN,,0.0,500.0,,7 / 19,43223,2018-06-19 15:19:08:086
-0.0961,0.282,9.954,-0.051,0.2729,9.806,-0.0451,0.0091,0.148,5.0E-4,-0.0091,-0.0024,47.0,-24.9,18.3,-37.35,52.95,-1.59,0.3,3.1,960.7,47.556,43.438343,-96.68991,1384.19,NaN,,0.0,500.0,,7 / 19,43322,2018-06-19 15:19:08:185
-0.0961,0.282,9.954,-0.051,0.2729,9.806,-0.0451,0.0091,0.148,5.0E-4,-0.0091,-0.0024,57.0,-24.9,18.3,-37.35,52.95,-1.59,0.3,3.1,960.73,41.418,43.438343,-96.68991,1384.19,NaN,,0.0,500.0,,7 / 19,43423,2018-06-19 15:19:08:286
-0.0961,0.282,9.954,-0.051,0.2729,9.806,-0.0451,0.0091,0.148,5.0E-4,-0.0091,-0.0024,57.0,-24.9,18.3,-37.35,52.95,-1.59,0.3,3.1,960.7,41.418,43.438343,-96.68991,1384.19,NaN,,0.0,500.0,,7 / 19,43526,2018-06-19 15:19:08:389
-0.0961,0.282,9.954,-0.051,0.2729,9.806,-0.0451,0.0091,0.148,5.0E-4,-0.0091,-0.0024,57.0,-24.9,18.3,-37.35,52.95,-1.59,0.3,3.1,960.73,41.418,43.438343,-96.68991,1384.19,NaN,,0.0,500.0,,7 / 19,43623,2018-06-19 15:19:08:486
-0.0961,0.282,9.954,-0.051,0.2729,9.806,-0.0451,0.0091,0.148,5.0E-4,-0.0091,-0.0024,63.0,-24.9,18.3,-37.35,52.95,-1.59,0.3,3.1,960.7,40.993,43.438343,-96.68991,1384.19,NaN,,0.0,500.0,,7 / 19,43723,2018-06-19 15:19:08:586
-0.0961,0.282,9.954,-0.051,0.2729,9.806,-0.0451,0.0091,0.148,5.0E-4,-0.0091,-0.0024,68.0,-24.9,18.3,-37.35,52.95,-1.59,0.3,3.1,960.69,40.993,43.438343,-96.68991,1384.19,NaN,,0.0,500.0,,7 / 19,43823,2018-06-19 15:19:08:686
-0.0961,0.282,9.954,-0.051,0.2729,9.806,-0.0451,0.0091,0.148,5.0E-4,-0.0091,-0.0024,70.0,-24.9,18.3,-37.35,52.95,-1.59,0.3,3.1,960.72,40.993,43.438343,-96.68991,1384.19,NaN,,0.0,500.0,,7 / 19,43923,2018-06-19 15:19:08:786
-0.0961,0.282,9.954,-0.051,0.2729,9.806,-0.0451,0.0091,0.148,5.0E-4,-0.0091,-0.0024,68.0,-24.9,18.3,-37.35,52.95,-1.59,0.3,3.1,960.72,42.305,43.438343,-96.68991,1384.19,NaN,,0.0,500.0,,7 / 19,44022,2018-06-19 15:19:08:885
-0.0961,0.282,9.954,-0.051,0.2729,9.806,-0.0451,0.0091,0.148,5.0E-4,-0.0091,-0.0024,53.0,-24.9,18.3,-37.35,52.95,-1.59,0.3,3.1,960.69,42.305,43.438343,-96.68991,1384.19,NaN,,0.0,500.0,,7 / 19,44126,2018-06-19 15:19:08:989
-0.0961,0.282,9.954,-0.051,0.2729,9.806,-0.0451,0.0091,0.148,5.0E-4,-0.0091,-0.0024,64.0,-24.9,18.3,-37.35,52.95,-1.59,0.3,3.1,960.75,42.305,43.438343,-96.68991,1384.19,NaN,,0.0,500.0,,7 / 19,44223,2018-06-19 15:19:09:086
-0.0961,0.282,9.954,-0.051,0.2729,9.806,-0.0451,0.0091,0.148,5.0E-4,-0.0091,-0.0024,68.0,-24.9,18.3,-37.35,52.95,-1.59,0.3,3.1,960.78,41.587,43.438343,-96.68991,1384.19,NaN,,0.0,500.0,,7 / 19,44327,2018-06-19 15:19:09:190
-0.0961,0.282,9.954,-0.051,0.2729,9.806,-0.0451,0.0091,0.148,5.0E-4,-0.0091,-0.0024,163.0,-24.9,18.3,-37.35,52.95,-1.59,0.3,3.1,960.74,41.587,43.438343,-96.68991,1384.19,NaN,,0.0,500.0,,7 / 19,44425,2018-06-19 15:19:09:288
-0.0961,0.282,9.954,-0.051,0.2729,9.806,-0.0451,0.0091,0.148,5.0E-4,-0.0091,-0.0024,176.0,-24.9,18.3,-37.35,52.95,-1.59,0.3,3.1,960.74,41.587,43.438343,-96.68991,1384.19,NaN,,0.0,500.0,,7 / 19,44523,2018-06-19 15:19:09:386
-0.0961,0.282,9.954,-0.051,0.2729,9.806,-0.0451,0.0091,0.148,5.0E-4,-0.0091,-0.0024,179.0,-24.9,18.3,-37.35,52.95,-1.59,0.3,3.1,960.8,41.587,43.438343,-96.68991,1384.19,NaN,,0.0,500.0,,7 / 19,44623,2018-06-19 15:19:09:486
-0.0961,0.282,9.954,-0.051,0.2729,9.806,-0.0451,0.0091,0.148,5.0E-4,-0.0091,-0.0024,201.0,-24.9,18.3,-37.35,52.95,-1.59,0.3,3.1,960.71,41.112,43.438343,-96.68991,1384.19,NaN,,0.0,500.0,,7 / 19,44723,2018-06-19 15:19:09:586
-0.0961,0.282,9.954,-0.051,0.2729,9.806,-0.0451,0.0091,0.148,5.0E-4,-0.0091,-0.0024,281.0,-24.9,18.3,-37.35,52.95,-1.59,0.3,3.1,960.77,41.112,43.438343,-96.68991,1384.19,NaN,,0.0,500.0,,7 / 19,44823,2018-06-19 15:19:09:686
-0.0961,0.282,9.954,-0.051,0.2729,9.806,-0.0451,0.0091,0.148,5.0E-4,-0.0091,-0.0024,309.0,-24.9,18.3,-37.35,52.95,-1.59,0.3,3.1,960.77,41.112,43.438343,-96.68991,1384.19,NaN,,0.0,500.0,,7 / 19,44922,2018-06-19 15:19:09:785
-0.0961,0.282,9.954,-0.051,0.2729,9.806,-0.0451,0.0091,0.148,5.0E-4,-0.0091,-0.0024,394.0,-24.9,18.3,-37.35,52.95,-1.59,0.3,3.1,960.77,41.489,43.438343,-96.68991,1384.19,NaN,,0.0,500.0,,7 / 19,45022,2018-06-19 15:19:09:885
-0.0961,0.282,9.954,-0.051,0.2729,9.806,-0.0451,0.0091,0.148,5.0E-4,-0.0091,-0.0024,412.0,-24.9,18.3,-37.35,52.95,-1.59,0.3,3.1,960.71,41.489,43.438343,-96.68991,1384.19,NaN,,0.0,500.0,,7 / 19,45123,2018-06-19 15:19:09:986
-0.0961,0.282,9.954,-0.051,0.2729,9.806,-0.0451,0.0091,0.148,5.0E-4,-0.0091,-0.0024,419.0,-24.9,18.3,-37.35,52.95,-1.59,0.3,3.1,960.77,41.489,43.438343,-96.68991,1384.19,NaN,,0.0,500.0,,7 / 19,45223,2018-06-19 15:19:10:086
-0.0961,0.282,9.954,-0.051,0.2729,9.806,-0.0451,0.0091,0.148,5.0E-4,-0.0091,-0.0024,421.0,-24.9,18.3,-37.35,52.95,-1.59,0.3,3.1,960.77,41.489,43.438343,-96.68991,1384.19,NaN,,0.0,500.0,,7 / 19,45323,2018-06-19 15:19:10:186
-0.0961,0.282,9.954,-0.051,0.2729,9.806,-0.0451,0.0091,0.148,5.0E-4,-0.0091,-0.0024,426.0,-24.9,18.3,-37.35,52.95,-1.59,0.3,3.1,960.77,45.732,43.438343,-96.68991,1384.19,NaN,,0.0,500.0,,7 / 19,45423,2018-06-19 15:19:10:286
-0.0961,0.282,9.954,-0.051,0.2729,9.806,-0.0451,0.0091,0.148,5.0E-4,-0.0091,-0.0024,422.0,-24.9,18.3,-37.35,52.95,-1.59,0.3,3.1,960.77,45.732,43.438343,-96.68991,1384.19,NaN,,0.0,500.0,,7 / 19,45523,2018-06-19 15:19:10:386
-0.0961,0.282,9.954,-0.051,0.2729,9.806,-0.0451,0.0091,0.148,5.0E-4,-0.0091,-0.0024,429.0,-24.9,18.3,-37.35,52.95,-1.59,0.3,3.1,960.83,45.732,43.438343,-96.68991,1384.19,NaN,,0.0,500.0,,0 / 19,45623,2018-06-19 15:19:10:486
-0.0961,0.282,9.954,-0.051,0.2729,9.806,-0.0451,0.0091,0.148,5.0E-4,-0.0091,-0.0024,426.0,-24.9,18.3,-37.35,52.95,-1.59,0.3,3.1,960.8,45.732,43.438343,-96.68991,1384.19,NaN,,0.0,500.0,,0 / 19,45723,2018-06-19 15:19:10:586
-0.0961,0.282,9.954,-0.051,0.2729,9.806,-0.0451,0.0091,0.148,5.0E-4,-0.0091,-0.0024,422.0,-24.9,18.3,-37.35,52.95,-1.59,0.3,3.1,960.8,42.635,43.438343,-96.68991,1384.19,NaN,,0.0,500.0,,0 / 19,45823,2018-06-19 15:19:10:686
-0.0961,0.282,9.954,-0.051,0.2729,9.806,-0.0451,0.0091,0.148,5.0E-4,-0.0091,-0.0024,422.0,-24.9,18.3,-37.35,52.95,-1.59,0.3,3.1,960.8,42.635,43.438343,-96.68991,1384.19,NaN,,0.0,500.0,,0 / 19,45923,2018-06-19 15:19:10:786
-0.0961,0.282,9.954,-0.051,0.2729,9.806,-0.0451,0.0091,0.148,5.0E-4,-0.0091,-0.0024,422.0,-24.9,18.3,-37.35,52.95,-1.59,0.3,3.1,960.8,42.635,43.438343,-96.68991,1384.19,NaN,,0.0,500.0,,0 / 19,46023,2018-06-19 15:19:10:886
-0.0961,0.282,9.954,-0.051,0.2729,9.806,-0.0451,0.0091,0.148,5.0E-4,-0.0091,-0.0024,419.0,-24.9,18.3,-37.35,52.95,-1.59,0.3,3.1,960.68,42.635,43.438343,-96.68991,1384.19,NaN,,0.0,500.0,,0 / 19,46122,2018-06-19 15:19:10:985
-0.0961,0.282,9.954,-0.051,0.2729,9.806,-0.0451,0.0091,0.148,5.0E-4,-0.0091,-0.0024,416.0,-24.9,18.3,-37.35,52.95,-1.59,0.3,3.1,960.68,42.429,43.438343,-96.68991,1384.19,NaN,,0.0,500.0,,0 / 19,46223,2018-06-19 15:19:11:086
-0.0961,0.282,9.954,-0.051,0.2729,9.806,-0.0451,0.0091,0.148,5.0E-4,-0.0091,-0.0024,416.0,-24.9,18.3,-37.35,52.95,-1.59,0.3,3.1,960.68,42.429,43.438343,-96.68991,1384.19,NaN,,0.0,500.0,,0 / 19,46328,2018-06-19 15:19:11:191
-0.0961,0.282,9.954,-0.051,0.2729,9.806,-0.0451,0.0091,0.148,5.0E-4,-0.0091,-0.0024,407.0,-24.9,18.3,-37.35,52.95,-1.59,0.3,3.1,960.71,42.429,43.438343,-96.68991,1384.19,NaN,,0.0,500.0,,0 / 19,46423,2018-06-19 15:19:11:286
-0.0961,0.282,9.954,-0.051,0.2729,9.806,-0.0451,0.0091,0.148,5.0E-4,-0.0091,-0.0024,401.0,-24.9,18.3,-37.35,52.95,-1.59,0.3,3.1,960.74,41.903,43.438343,-96.68991,1384.19,NaN,,0.0,500.0,,0 / 19,46529,2018-06-19 15:19:11:392
-0.0961,0.282,9.954,-0.051,0.2729,9.806,-0.0451,0.0091,0.148,5.0E-4,-0.0091,-0.0024,396.0,-24.9,18.3,-37.35,52.95,-1.59,0.3,3.1,960.71,41.903,43.438343,-96.68991,1384.19,NaN,,0.0,500.0,,0 / 19,46623,2018-06-19 15:19:11:486
-0.0961,0.282,9.954,-0.051,0.2729,9.806,-0.0451,0.0091,0.148,5.0E-4,-0.0091,-0.0024,392.0,-24.9,18.3,-37.35,52.95,-1.59,0.3,3.1,960.74,41.903,43.438343,-96.68991,1384.19,NaN,,0.0,500.0,,0 / 19,46722,2018-06-19 15:19:11:585
-0.0961,0.282,9.954,-0.051,0.2729,9.806,-0.0451,0.0091,0.148,5.0E-4,-0.0091,-0.0024,381.0,-24.9,18.3,-37.35,52.95,-1.59,0.3,3.1,960.81,41.903,43.438343,-96.68991,1384.19,NaN,,0.0,500.0,,0 / 19,46823,2018-06-19 15:19:11:686
-0.0961,0.282,9.954,-0.051,0.2729,9.806,-0.0451,0.0091,0.148,5.0E-4,-0.0091,-0.0024,379.0,-24.9,18.3,-37.35,52.95,-1.59,0.3,3.1,960.81,41.308,43.438343,-96.68991,1384.19,NaN,,0.0,500.0,,0 / 19,46923,2018-06-19 15:19:11:786
-0.0961,0.282,9.954,-0.051,0.2729,9.806,-0.0451,0.0091,0.148,5.0E-4,-0.0091,-0.0024,366.0,-24.9,18.3,-37.35,52.95,-1.59,0.3,3.1,960.74,41.308,43.438343,-96.68991,1384.19,NaN,,0.0,500.0,,0 / 19,47023,2018-06-19 15:19:11:886
-0.0961,0.282,9.954,-0.051,0.2729,9.806,-0.0451,0.0091,0.148,5.0E-4,-0.0091,-0.0024,362.0,-24.9,18.3,-37.35,52.95,-1.59,0.3,3.1,960.74,41.308,43.438343,-96.68991,1384.19,NaN,,0.0,500.0,,0 / 19,47123,2018-06-19 15:19:11:986
-0.0961,0.282,9.954,-0.051,0.2729,9.806,-0.0451,0.0091,0.148,5.0E-4,-0.0091,-0.0024,359.0,-24.9,18.3,-37.35,52.95,-1.59,0.3,3.1,960.74,41.308,43.438343,-96.68991,1384.19,NaN,,0.0,500.0,,0 / 19,47223,2018-06-19 15:19:12:086
-0.0961,0.282,9.954,-0.051,0.2729,9.806,-0.0451,0.0091,0.148,5.0E-4,-0.0091,-0.0024,356.0,-24.9,18.3,-37.35,52.95,-1.59,0.3,3.1,960.74,41.75,43.438343,-96.68991,1384.19,NaN,,0.0,500.0,,0 / 19,47323,2018-06-19 15:19:12:186
-0.0961,0.282,9.954,-0.051,0.2729,9.806,-0.0451,0.0091,0.148,5.0E-4,-0.0091,-0.0024,359.0,-24.9,18.3,-37.35,52.95,-1.59,0.3,3.1,960.75,41.75,43.438343,-96.68991,1384.19,NaN,,0.0,500.0,,0 / 19,47423,2018-06-19 15:19:12:286
-0.0961,0.282,9.954,-0.051,0.2729,9.806,-0.0451,0.0091,0.148,5.0E-4,-0.0091,-0.0024,357.0,-24.9,18.3,-37.35,52.95,-1.59,0.3,3.1,960.72,41.75,43.438343,-96.68991,1384.19,NaN,,0.0,500.0,,0 / 19,47528,2018-06-19 15:19:12:391
-0.0961,0.282,9.954,-0.051,0.2729,9.806,-0.0451,0.0091,0.148,5.0E-4,-0.0091,-0.0024,356.0,-24.9,18.3,-37.35,52.95,-1.59,0.3,3.1,960.72,41.75,43.438343,-96.68991,1384.19,NaN,,0.0,500.0,,0 / 19,47650,2018-06-19 15:19:12:513
-0.0961,0.282,9.954,-0.051,0.2729,9.806,-0.0451,0.0091,0.148,5.0E-4,-0.0091,-0.0024,356.0,-24.9,18.3,-37.35,52.95,-1.59,0.3,3.1,960.75,43.083,43.438343,-96.68991,1384.19,NaN,,0.0,500.0,,3 / 19,47722,2018-06-19 15:19:12:585
-0.0961,0.282,9.954,-0.051,0.2729,9.806,-0.0451,0.0091,0.148,5.0E-4,-0.0091,-0.0024,354.0,-24.9,18.3,-37.35,52.95,-1.59,0.3,3.1,960.81,43.083,43.438343,-96.68991,1384.19,NaN,,0.0,500.0,,3 / 19,47823,2018-06-19 15:19:12:686
-0.0961,0.282,9.954,-0.051,0.2729,9.806,-0.0451,0.0091,0.148,5.0E-4,-0.0091,-0.0024,356.0,-24.9,18.3,-37.35,52.95,-1.59,0.3,3.1,960.75,43.083,43.438343,-96.68991,1384.19,NaN,,0.0,500.0,,3 / 19,47927,2018-06-19 15:19:12:790
-0.0961,0.282,9.954,-0.051,0.2729,9.806,-0.0451,0.0091,0.148,5.0E-4,-0.0091,-0.0024,356.0,-24.9,18.3,-37.35,52.95,-1.59,0.3,3.1,960.72,42.734,43.438343,-96.68991,1384.19,NaN,,0.0,500.0,,3 / 19,48023,2018-06-19 15:19:12:886
-0.0961,0.282,9.954,-0.051,0.2729,9.806,-0.0451,0.0091,0.148,5.0E-4,-0.0091,-0.0024,356.0,-24.9,18.3,-37.35,52.95,-1.59,0.3,3.1,960.72,42.734,43.438343,-96.68991,1384.19,NaN,,0.0,500.0,,3 / 19,48123,2018-06-19 15:19:12:986
-0.0961,0.282,9.954,-0.051,0.2729,9.806,-0.0451,0.0091,0.148,5.0E-4,-0.0091,-0.0024,357.0,-24.9,18.3,-37.35,52.95,-1.59,0.3,3.1,960.76,42.734,43.438343,-96.68991,1384.19,NaN,,0.0,500.0,,3 / 19,48223,2018-06-19 15:19:13:086
-0.0961,0.282,9.954,-0.051,0.2729,9.806,-0.0451,0.0091,0.148,5.0E-4,-0.0091,-0.0024,352.0,-24.9,18.3,-37.35,52.95,-1.59,0.3,3.1,960.73,42.734,43.438343,-96.68991,1384.19,NaN,,0.0,500.0,,3 / 19,48326,2018-06-19 15:19:13:189
-0.0961,0.282,9.954,-0.051,0.2729,9.806,-0.0451,0.0091,0.148,5.0E-4,-0.0091,-0.0024,356.0,-24.9,18.3,-37.35,52.95,-1.59,0.3,3.1,960.73,42.734,43.438343,-96.68991,1384.19,NaN,,0.0,500.0,,3 / 19,48422,2018-06-19 15:19:13:285
-0.0961,0.282,9.954,-0.051,0.2729,9.806,-0.0451,0.0091,0.148,5.0E-4,-0.0091,-0.0024,349.0,-24.9,18.3,-37.35,52.95,-1.59,0.3,3.1,960.7,41.897,43.438343,-96.68991,1384.19,NaN,,0.0,500.0,,3 / 19,48527,2018-06-19 15:19:13:390
-0.0961,0.282,9.954,-0.051,0.2729,9.806,-0.0451,0.0091,0.148,5.0E-4,-0.0091,-0.0024,352.0,-24.9,18.3,-37.35,52.95,-1.59,0.3,3.1,960.67,41.897,43.438343,-96.68991,1384.19,NaN,,0.0,500.0,,3 / 19,48623,2018-06-19 15:19:13:486
-0.0961,0.282,9.954,-0.051,0.2729,9.806,-0.0451,0.0091,0.148,5.0E-4,-0.0091,-0.0024,349.0,-24.9,18.3,-37.35,52.95,-1.59,0.3,3.1,960.7,41.897,43.438343,-96.68991,1384.19,NaN,,0.0,500.0,,3 / 19,48727,2018-06-19 15:19:13:590
-0.0961,0.282,9.954,-0.051,0.2729,9.806,-0.0451,0.0091,0.148,5.0E-4,-0.0091,-0.0024,349.0,-24.9,18.3,-37.35,52.95,-1.59,0.3,3.1,960.76,41.996,43.438343,-96.68991,1384.19,NaN,,0.0,500.0,,3 / 19,48823,2018-06-19 15:19:13:686
-0.0961,0.282,9.954,-0.051,0.2729,9.806,-0.0451,0.0091,0.148,5.0E-4,-0.0091,-0.0024,347.0,-24.9,18.3,-37.35,52.95,-1.59,0.3,3.1,960.76,41.996,43.438343,-96.68991,1384.19,NaN,,0.0,500.0,,3 / 19,48923,2018-06-19 15:19:13:786
-0.0961,0.282,9.954,-0.051,0.2729,9.806,-0.0451,0.0091,0.148,5.0E-4,-0.0091,-0.0024,347.0,-24.9,18.3,-37.35,52.95,-1.59,0.3,3.1,960.82,41.996,43.438343,-96.68991,1384.19,NaN,,0.0,500.0,,3 / 19,49023,2018-06-19 15:19:13:886
-0.0961,0.282,9.954,-0.051,0.2729,9.806,-0.0451,0.0091,0.148,5.0E-4,-0.0091,-0.0024,346.0,-24.9,18.3,-37.35,52.95,-1.59,0.3,3.1,960.81,41.936,43.438343,-96.68991,1384.19,NaN,,0.0,500.0,,3 / 19,49126,2018-06-19 15:19:13:989
-0.0961,0.282,9.954,-0.051,0.2729,9.806,-0.0451,0.0091,0.148,5.0E-4,-0.0091,-0.0024,351.0,-24.9,18.3,-37.35,52.95,-1.59,0.3,3.1,960.75,41.936,43.438343,-96.68991,1384.19,NaN,,0.0,500.0,,3 / 19,49223,2018-06-19 15:19:14:086
-0.0961,0.282,9.954,-0.051,0.2729,9.806,-0.0451,0.0091,0.148,5.0E-4,-0.0091,-0.0024,351.0,-24.9,18.3,-37.35,52.95,-1.59,0.3,3.1,960.72,41.936,43.438343,-96.68991,1384.19,NaN,,0.0,500.0,,3 / 19,49322,2018-06-19 15:19:14:185
-0.0961,0.282,9.954,-0.051,0.2729,9.806,-0.0451,0.0091,0.148,5.0E-4,-0.0091,-0.0024,346.0,-24.9,18.3,-37.35,52.95,-1.59,0.3,3.1,960.74,41.936,43.438343,-96.68991,1384.19,NaN,,0.0,500.0,,3 / 19,49423,2018-06-19 15:19:14:286
-0.0961,0.282,9.954,-0.051,0.2729,9.806,-0.0451,0.0091,0.148,5.0E-4,-0.0091,-0.0024,346.0,-24.9,18.3,-37.35,52.95,-1.59,0.3,3.1,960.83,41.988,43.438343,-96.68991,1384.19,NaN,,0.0,500.0,,3 / 19,49522,2018-06-19 15:19:14:385
-0.0961,0.282,9.954,-0.051,0.2729,9.806,-0.0451,0.0091,0.148,5.0E-4,-0.0091,-0.0024,346.0,-24.9,18.3,-37.35,52.95,-1.59,0.3,3.1,960.71,41.988,43.438343,-96.68991,1384.19,NaN,,0.0,500.0,,3 / 19,49623,2018-06-19 15:19:14:486
-0.0961,0.282,9.954,-0.051,0.2729,9.806,-0.0451,0.0091,0.148,5.0E-4,-0.0091,-0.0024,346.0,-24.9,18.3,-37.35,52.95,-1.59,0.3,3.1,960.71,41.988,43.438343,-96.68991,1384.19,NaN,,0.0,500.0,,3 / 19,49723,2018-06-19 15:19:14:586
-0.0961,0.282,9.954,-0.051,0.2729,9.806,-0.0451,0.0091,0.148,5.0E-4,-0.0091,-0.0024,346.0,-24.9,18.3,-37.35,52.95,-1.59,0.3,3.1,960.71,41.988,43.438343,-96.68991,1384.19,NaN,,0.0,500.0,,3 / 19,49823,2018-06-19 15:19:14:686
-0.0961,0.282,9.954,-0.051,0.2729,9.806,-0.0451,0.0091,0.148,5.0E-4,-0.0091,-0.0024,349.0,-24.9,18.3,-37.35,52.95,-1.59,0.3,3.1,960.77,41.911,43.438343,-96.68991,1384.19,NaN,,0.0,500.0,,3 / 19,49923,2018-06-19 15:19:14:786
-0.0961,0.282,9.954,-0.051,0.2729,9.806,-0.0451,0.0091,0.148,5.0E-4,-0.0091,-0.0024,346.0,-24.9,18.3,-37.35,52.95,-1.59,0.3,3.1,960.64,41.911,43.438343,-96.68991,1384.19,NaN,,0.0,500.0,,3 / 19,50093,2018-06-19 15:19:14:956
-0.0961,0.282,9.954,-0.051,0.2729,9.806,-0.0451,0.0091,0.148,5.0E-4,-0.0091,-0.0024,346.0,-24.9,18.3,-37.35,52.95,-1.59,0.3,3.1,960.64,41.911,43.438343,-96.68991,1384.19,NaN,,0.0,500.0,,3 / 19,50123,2018-06-19 15:19:14:986
-0.0961,0.282,9.954,-0.051,0.2729,9.806,-0.0451,0.0091,0.148,5.0E-4,-0.0091,-0.0024,346.0,-24.9,18.3,-37.35,52.95,-1.59,0.3,3.1,960.73,42.013,43.438343,-96.68991,1384.19,NaN,,0.0,500.0,,3 / 19,50222,2018-06-19 15:19:15:085
-0.0961,0.282,9.954,-0.051,0.2729,9.806,-0.0451,0.0091,0.148,5.0E-4,-0.0091,-0.0024,346.0,-24.9,18.3,-37.35,52.95,-1.59,0.3,3.1,960.73,42.013,43.438343,-96.68991,1384.19,NaN,,0.0,500.0,,3 / 19,50323,2018-06-19 15:19:15:186
-0.0961,0.282,9.954,-0.051,0.2729,9.806,-0.0451,0.0091,0.148,5.0E-4,-0.0091,-0.0024,347.0,-24.9,18.3,-37.35,52.95,-1.59,0.3,3.1,960.76,42.013,43.438343,-96.68991,1384.19,NaN,,0.0,500.0,,3 / 19,50422,2018-06-19 15:19:15:285
-0.0961,0.282,9.954,-0.051,0.2729,9.806,-0.0451,0.0091,0.148,5.0E-4,-0.0091,-0.0024,352.0,-24.9,18.3,-37.35,52.95,-1.59,0.3,3.1,960.79,42.013,43.438343,-96.68991,1384.19,NaN,,0.0,500.0,,3 / 19,50523,2018-06-19 15:19:15:386
-0.0961,0.282,9.954,-0.051,0.2729,9.806,-0.0451,0.0091,0.148,5.0E-4,-0.0091,-0.0024,369.0,-24.9,18.3,-37.35,52.95,-1.59,0.3,3.1,960.79,42.687,43.438343,-96.68991,1384.19,NaN,,0.0,500.0,,3 / 19,50623,2018-06-19 15:19:15:486
-0.0961,0.282,9.954,-0.051,0.2729,9.806,-0.0451,0.0091,0.148,5.0E-4,-0.0091,-0.0024,379.0,-24.9,18.3,-37.35,52.95,-1.59,0.3,3.1,960.72,42.687,43.438343,-96.68991,1384.19,NaN,,0.0,500.0,,3 / 19,50723,2018-06-19 15:19:15:586
-0.0961,0.282,9.954,-0.051,0.2729,9.806,-0.0451,0.0091,0.148,5.0E-4,-0.0091,-0.0024,392.0,-24.9,18.3,-37.35,52.95,-1.59,0.3,3.1,960.75,42.687,43.438343,-96.68991,1384.19,NaN,,0.0,500.0,,3 / 19,50823,2018-06-19 15:19:15:686
-0.0961,0.282,9.954,-0.051,0.2729,9.806,-0.0451,0.0091,0.148,5.0E-4,-0.0091,-0.0024,399.0,-24.9,18.3,-37.35,52.95,-1.59,0.3,3.1,960.66,42.687,43.438343,-96.68991,1384.19,NaN,,0.0,500.0,,3 / 19,50923,2018-06-19 15:19:15:786
-0.0961,0.282,9.954,-0.051,0.2729,9.806,-0.0451,0.0091,0.148,5.0E-4,-0.0091,-0.0024,414.0,-24.9,18.3,-37.35,52.95,-1.59,0.3,3.1,960.81,44.018,43.438343,-96.68991,1384.19,NaN,,0.0,500.0,,3 / 19,51023,2018-06-19 15:19:15:886
-0.0961,0.282,9.954,-0.051,0.2729,9.806,-0.0451,0.0091,0.148,5.0E-4,-0.0091,-0.0024,416.0,-24.9,18.3,-37.35,52.95,-1.59,0.3,3.1,960.75,44.018,43.438343,-96.68991,1384.19,NaN,,0.0,500.0,,3 / 19,51123,2018-06-19 15:19:15:986
-0.0961,0.282,9.954,-0.051,0.2729,9.806,-0.0451,0.0091,0.148,5.0E-4,-0.0091,-0.0024,419.0,-24.9,18.3,-37.35,52.95,-1.59,0.3,3.1,960.75,44.018,43.438343,-96.68991,1384.19,NaN,,0.0,500.0,,3 / 19,51223,2018-06-19 15:19:16:086
-0.0961,0.282,9.954,-0.051,0.2729,9.806,-0.0451,0.0091,0.148,5.0E-4,-0.0091,-0.0024,419.0,-24.9,18.3,-37.35,52.95,-1.59,0.3,3.1,960.68,44.018,43.438343,-96.68991,1384.19,NaN,,0.0,500.0,,3 / 19,51322,2018-06-19 15:19:16:185
-0.0961,0.282,9.954,-0.051,0.2729,9.806,-0.0451,0.0091,0.148,5.0E-4,-0.0091,-0.0024,422.0,-24.9,18.3,-37.35,52.95,-1.59,0.3,3.1,960.75,43.103,43.438343,-96.68991,1384.19,NaN,,0.0,500.0,,3 / 19,51422,2018-06-19 15:19:16:285
-0.0961,0.282,9.954,-0.051,0.2729,9.806,-0.0451,0.0091,0.148,5.0E-4,-0.0091,-0.0024,426.0,-24.9,18.3,-37.35,52.95,-1.59,0.3,3.1,960.74,43.103,43.438343,-96.68991,1384.19,NaN,,0.0,500.0,,3 / 19,51523,2018-06-19 15:19:16:386
-0.0961,0.282,9.954,-0.051,0.2729,9.806,-0.0451,0.0091,0.148,5.0E-4,-0.0091,-0.0024,422.0,-24.9,18.3,-37.35,52.95,-1.59,0.3,3.1,960.74,43.103,43.438343,-96.68991,1384.19,NaN,,0.0,500.0,,3 / 19,51623,2018-06-19 15:19:16:486
-0.0961,0.282,9.954,-0.051,0.2729,9.806,-0.0451,0.0091,0.148,5.0E-4,-0.0091,-0.0024,424.0,-24.9,18.3,-37.35,52.95,-1.59,0.3,3.1,960.71,43.032,43.438343,-96.68991,1384.19,NaN,,0.0,500.0,,3 / 19,51723,2018-06-19 15:19:16:586
-0.0961,0.282,9.954,-0.051,0.2729,9.806,-0.0451,0.0091,0.148,5.0E-4,-0.0091,-0.0024,419.0,-24.9,18.3,-37.35,52.95,-1.59,0.3,3.1,960.77,43.032,43.438343,-96.68991,1384.19,NaN,,0.0,500.0,,3 / 19,51822,2018-06-19 15:19:16:685
-0.0961,0.282,9.954,-0.051,0.2729,9.806,-0.0451,0.0091,0.148,5.0E-4,-0.0091,-0.0024,416.0,-24.9,18.3,-37.35,52.95,-1.59,0.3,3.1,960.74,43.032,43.438343,-96.68991,1384.19,NaN,,0.0,500.0,,3 / 19,51923,2018-06-19 15:19:16:786
-0.0961,0.282,9.954,-0.051,0.2729,9.806,-0.0451,0.0091,0.148,5.0E-4,-0.0091,-0.0024,377.0,-24.9,18.3,-37.35,52.95,-1.59,0.3,3.1,960.77,43.032,43.438343,-96.68991,1384.19,NaN,,0.0,500.0,,3 / 19,52023,2018-06-19 15:19:16:886
-0.0961,0.282,9.954,-0.051,0.2729,9.806,-0.0451,0.0091,0.148,5.0E-4,-0.0091,-0.0024,339.0,-24.9,18.3,-37.35,52.95,-1.59,0.3,3.1,960.83,41.917,43.438343,-96.68991,1384.19,NaN,,0.0,500.0,,3 / 19,52128,2018-06-19 15:19:16:991
-0.0961,0.282,9.954,-0.051,0.2729,9.806,-0.0451,0.0091,0.148,5.0E-4,-0.0091,-0.0024,223.0,-24.9,18.3,-37.35,52.95,-1.59,0.3,3.1,960.71,41.917,43.438343,-96.68991,1384.19,NaN,,0.0,500.0,,3 / 19,52223,2018-06-19 15:19:17:086
-0.0961,0.282,9.954,-0.051,0.2729,9.806,-0.0451,0.0091,0.148,5.0E-4,-0.0091,-0.0024,201.0,-24.9,18.3,-37.35,52.95,-1.59,0.3,3.1,960.71,41.917,43.438343,-96.68991,1384.19,NaN,,0.0,500.0,,3 / 19,52323,2018-06-19 15:19:17:186
-0.0961,0.282,9.954,-0.051,0.2729,9.806,-0.0451,0.0091,0.148,5.0E-4,-0.0091,-0.0024,163.0,-24.9,18.3,-37.35,52.95,-1.59,0.3,3.1,960.75,41.917,43.438343,-96.68991,1384.19,NaN,,0.0,500.0,,3 / 19,52423,2018-06-19 15:19:17:286
-0.0961,0.282,9.954,-0.051,0.2729,9.806,-0.0451,0.0091,0.148,5.0E-4,-0.0091,-0.0024,153.0,-24.9,18.3,-37.35,52.95,-1.59,0.3,3.1,960.78,43.106,43.438343,-96.68991,1384.19,NaN,,0.0,500.0,,3 / 19,52523,2018-06-19 15:19:17:386
-0.0961,0.282,9.954,-0.051,0.2729,9.806,-0.0451,0.0091,0.148,5.0E-4,-0.0091,-0.0024,71.0,-24.9,18.3,-37.35,52.95,-1.59,0.3,3.1,960.75,43.106,43.438343,-96.68991,1384.19,NaN,,0.0,500.0,,3 / 19,52623,2018-06-19 15:19:17:486
