ACCELEROMETER X (m/s²),ACCELEROMETER Y (m/s²),ACCELEROMETER Z (m/s²),GRAVITY X (m/s²),GRAVITY Y (m/s²),GRAVITY Z (m/s²),LINEAR ACCELERATION X (m/s²),LINEAR ACCELERATION Y (m/s²),LINEAR ACCELERATION Z (m/s²),GYROSCOPE X (rad/s),GYROSCOPE Y (rad/s),GYROSCOPE Z (rad/s),LIGHT (lux),MAGNETIC FIELD X (μT),MAGNETIC FIELD Y (μT),MAGNETIC FIELD Z (μT),ORIENTATION Z (azimuth °),ORIENTATION X (pitch °),ORIENTATION Y (roll °),PROXIMITY (i),ATMOSPHERIC PRESSURE (hPa),SOUND LEVEL (dB),LOCATION Latitude : ,LOCATION Longitude : ,LOCATION Altitude ( m),LOCATION Altitude-google ( m),LOCATION Altitude-atmospheric pressure ( m),LOCATION Speed ( Kmh),LOCATION Accuracy ( m),LOCATION ORIENTATION (°),Satellites in range,Time since start in ms ,YYYY-MO-DD HH-MI-SS_SSS
-0.3807,0.0084,9.9515,-0.3429,0.0094,9.8039,-0.0377,-0.001,0.1476,-0.0687,0.0296,0.0288,22.0,-17.15,18.2,-39.7,45.55,-0.06,2.0,3.1,960.9,42.6,43.43826,-96.68999,,1422.826814170571,,,58.722584,,0 / 21,7,2018-06-18 23:00:48:155
-0.4771,-0.0671,10.0196,-0.4551,-0.0678,9.7991,-0.0383,0.0055,0.2533,-0.0115,0.0107,-0.0043,21.0,-15.5,17.85,-40.35,43.53,0.4,2.66,3.1,960.82,42.192,43.43826,-96.68999,,1422.826814170571,,,58.722584,,0 / 21,507,2018-06-18 23:00:48:655
-0.31,-0.4401,10.0347,-0.4669,-0.3675,9.7919,0.1569,-0.0726,0.2428,-0.2037,0.0756,-0.037,20.0,-15.6,18.7,-40.15,44.08,0.72,2.74,3.1,960.85,42.653,43.43826,-96.68999,,1422.826814170571,,,58.722584,,0 / 21,1011,2018-06-18 23:00:49:159
-0.3506,-0.677,9.4967,0.1422,-0.3525,9.8025,-0.4928,-0.3245,-0.3058,-0.5127,-0.1734,-0.0762,52.0,-14.8,18.1,-40.7,41.11,2.06,-0.83,3.1,960.87,42.339,43.43826,-96.68999,,1422.826814170571,,,58.722584,,0 / 21,1507,2018-06-18 23:00:49:655
-1.7009,0.1587,9.5687,-1.6428,0.3905,9.6635,-0.0581,-0.2319,-0.0948,0.2578,0.4858,0.9374,13.0,-13.35,19.3,-40.3,43.64,-2.28,9.65,3.1,960.81,43.595,43.43826,-96.68999,,1422.826814170571,,,58.722584,,0 / 21,2006,2018-06-18 23:00:50:154
-0.4732,1.1743,9.9381,0.2958,1.7148,9.6543,-0.3934,-0.3735,0.3013,0.0868,-0.0535,0.3313,17.0,-6.95,17.85,-41.7,15.51,-8.12,-0.55,3.1,960.85,43.259,43.43826,-96.68999,,1422.826814170571,,,58.722584,,0 / 21,2506,2018-06-18 23:00:50:654
0.4696,1.6121,9.7754,0.8004,1.3098,9.6891,0.1148,-0.0097,0.3771,0.0474,-0.11,0.9507,20.0,-4.05,13.4,-42.0,1.64,-7.67,-4.72,3.1,960.82,42.797,43.43826,-96.68999,,1422.826814170571,,,58.722584,,0 / 21,3006,2018-06-18 23:00:51:154
0.7252,0.7887,9.8337,0.71,1.4872,9.6705,0.0557,-0.7297,0.0862,-0.0509,0.017,0.7302,4.0,-0.65,13.7,-40.9,354.29,-8.72,-4.2,3.1,960.82,43.269,43.43826,-96.68999,,1422.826814170571,,,58.722584,,0 / 21,3510,2018-06-18 23:00:51:658
0.7425,0.8758,10.0603,0.7667,1.0375,9.7247,-0.0242,-0.1617,0.3356,0.0101,0.0328,0.7505,15.0,3.65,9.65,-42.05,333.05,-6.07,-4.51,3.1,960.85,42.379,43.43826,-96.68999,,1422.826814170571,,,58.722584,,0 / 21,4009,2018-06-18 23:00:52:157
1.4018,0.9245,9.3591,1.3991,0.6476,9.688,0.0127,0.1376,0.1949,-0.1286,-0.0304,0.0357,15.0,6.05,4.05,-42.8,299.16,-3.78,-8.22,3.1,960.82,42.708,43.43826,-96.68999,,1422.826814170571,,,58.722584,,0 / 21,4507,2018-06-18 23:00:52:655
5.5229,-0.7709,10.8735,4.4851,-0.6467,8.7005,0.8824,0.0594,2.3715,-0.2437,-0.1241,0.249,20.0,1.95,3.55,-42.8,274.08,3.78,-27.27,3.1,960.88,40.632,43.43826,-96.68999,,1422.826814170571,,,58.722584,,0 / 21,5010,2018-06-18 23:00:53:158
5.2824,-2.1986,7.5904,6.2675,-2.5112,7.1167,-0.6131,-0.316,-0.021,-0.6224,-0.9526,0.29,28.0,-8.9,9.35,-41.95,267.57,14.83,-41.37,3.1,960.76,41.985,43.43826,-96.68999,,1422.826814170571,,,58.722584,,0 / 21,5507,2018-06-18 23:00:53:655
7.8311,-5.0071,3.9834,6.8908,-3.8913,5.7974,-0.7703,0.4853,0.4058,-0.1712,-1.1396,0.8629,129.0,-14.05,15.6,-39.45,271.32,23.37,-49.92,3.1,960.88,42.844,43.43826,-96.68999,,1422.826814170571,,,58.722584,,0 / 21,6007,2018-06-18 23:00:54:155
6.9602,-5.6314,3.4143,8.0103,-4.4799,3.4641,-1.0501,-1.1516,-0.0498,0.7619,-0.4615,0.4027,3.0,-31.75,25.9,-27.2,291.77,27.17,-66.61,3.1,960.91,42.26,43.43826,-96.68999,,1422.826814170571,,,58.722584,,0 / 21,6506,2018-06-18 23:00:54:654
7.7892,-5.3454,3.009,7.8893,-5.0819,2.858,-0.1001,-0.2635,0.151,0.5814,-0.5723,0.0546,3.0,-37.85,22.05,-24.15,238.87,32.47,-68.62,3.1,960.95,44.049,43.43826,-96.68999,,1422.826814170571,,,58.722584,,0 / 21,7007,2018-06-18 23:00:55:155
7.5067,-5.8528,3.5487,8.2971,-4.4896,2.6899,-0.7904,-1.3632,0.8588,-0.8357,0.4248,-0.8815,2.0,-41.5,16.35,-20.0,215.02,30.54,-72.09,3.1,960.95,41.255,43.43826,-96.68999,,1422.826814170571,,,58.722584,,2 / 20,7507,2018-06-18 23:00:55:655
7.4847,-5.275,3.0662,8.2467,-4.7266,2.4265,-0.7619,-0.5485,0.6398,-0.5023,0.967,0.2812,2.0,-42.2,13.3,-19.2,211.0,28.8,-73.6,3.1,960.91,42.126,43.43826,-96.68999,,1422.826814170571,,,58.722584,,2 / 20,8010,2018-06-18 23:00:56:158
7.5882,-6.2911,5.5178,6.8655,-3.2857,6.189,0.1968,-3.1851,-0.6056,1.167,1.0831,-0.5001,1.0,-36.75,12.75,-25.45,112.43,19.57,-47.97,3.1,960.9,42.81,43.43826,-96.68999,,1422.826814170571,,,58.722584,,4 / 20,8531,2018-06-18 23:00:56:679
4.3757,-0.339,9.0464,1.6776,-0.6226,9.6453,2.141,-0.5218,-0.5039,-0.159,1.3398,0.8314,2.0,-24.65,-3.55,-33.75,106.14,-0.32,-18.31,3.1,960.86,43.152,43.43826,-96.68999,,1422.826814170571,,,58.722584,,4 / 20,9008,2018-06-18 23:00:57:156
-0.8731,1.0101,9.4118,-0.7784,-0.2635,9.7754,-0.0948,1.2736,-0.3636,0.7507,0.8272,0.7981,3.0,-8.8,-7.25,-38.8,123.62,1.54,4.55,3.1,961.0,53.03,43.43826,-96.68999,,1422.826814170571,,,58.722584,,6 / 20,9506,2018-06-18 23:00:57:654
-3.109,-0.513,9.0779,-2.5517,-0.557,9.4558,0.0681,-0.7931,0.5591,0.2008,0.5361,-0.3334,5.0,2.5,-8.4,-38.8,144.46,3.25,15.1,3.1,960.9,45.635,43.43826,-96.68999,,1422.826814170571,,,58.722584,,6 / 20,10008,2018-06-18 23:00:58:156
-2.5107,-0.5336,9.6859,-2.6998,-0.4051,9.4225,-0.0618,-0.0742,0.3296,-0.0248,-0.004,0.0671,5.0,9.0,-7.7,-37.0,170.91,2.37,15.97,3.1,960.9,45.383,43.43826,-96.68999,,1422.826814170571,,,58.722584,,7 / 20,10507,2018-06-18 23:00:58:655
-0.3518,-1.202,10.1754,0.6273,-2.0308,9.5769,-0.9365,1.0171,0.1433,-0.2999,-1.1803,0.644,4.0,6.2,-6.3,-38.3,194.91,10.46,3.87,3.1,960.98,47.358,43.43826,-96.68999,,1422.826814170571,,,58.722584,,7 / 20,11006,2018-06-18 23:00:59:154
1.7026,-3.8223,9.2747,1.6235,-3.4151,9.0518,0.079,-0.4072,0.2229,-0.0453,-0.0722,0.0991,2.0,-7.15,-0.05,-41.95,182.03,20.37,-10.17,3.1,961.02,46.481,43.43789,-96.689926,1335.16,1422.826814170571,,0.0,229.03226,,7 / 20,11507,2018-06-18 23:00:59:655
1.7481,-3.2834,9.3367,1.6178,-3.2108,9.1273,0.1302,-0.0726,0.2094,0.0043,0.0269,0.0453,2.0,-9.9,1.45,-42.8,170.15,19.11,-10.05,3.1,960.97,46.242,43.43789,-96.689926,1335.16,1422.826814170571,,0.0,229.03226,,7 / 20,12009,2018-06-18 23:01:00:157
1.6039,-3.4163,9.2972,1.6309,-3.3319,9.0815,-0.0269,-0.0844,0.2157,-0.065,-0.013,0.0128,2.0,-9.35,-2.7,-42.15,175.29,19.86,-10.18,3.1,960.84,48.821,43.43785,-96.68991,1335.48,1422.826814170571,,0.0,187.09677,,8 / 20,12506,2018-06-18 23:01:00:654
1.7535,-3.3017,9.3509,1.6204,-3.1819,9.137,0.1331,-0.1198,0.2139,0.1515,0.0288,0.0016,2.0,-9.05,-0.75,-41.45,173.33,18.93,-10.06,3.1,960.94,46.29,43.43785,-96.68991,1335.48,1422.826814170571,,0.0,187.09677,,8 / 20,13009,2018-06-18 23:01:01:157
0.4253,-0.782,9.5238,0.375,-0.8047,9.7697,0.0503,0.0228,-0.2459,0.3039,0.3907,-0.8195,2.0,-1.2,-13.25,-39.65,181.89,4.71,-2.2,3.1,960.94,44.928,43.437836,-96.6899,1335.81,1422.826814170571,,0.0,167.74194,,8 / 20,13506,2018-06-18 23:01:01:654
1.8052,2.6407,12.6872,1.486,1.9708,9.4943,-1.0432,-0.1133,0.7472,1.1811,-1.2914,0.1097,10.0,5.2,-17.7,-37.35,202.7,-3.48,-2.46,3.1,960.96,45.674,43.437836,-96.6899,1335.81,1422.826814170571,,0.0,167.74194,,8 / 20,14010,2018-06-18 23:01:02:158
3.3833,3.4262,11.1,0.9595,2.683,9.387,1.5798,1.0055,1.7662,-0.3068,-2.0048,-2.954,8.0,10.8,-25.6,-31.35,219.86,-15.87,-5.84,3.1,960.9,44.532,43.43778,-96.690025,1334.19,1422.826814170571,,0.0,145.1613,,9 / 20,14507,2018-06-18 23:01:02:655
4.4399,2.4606,8.8804,3.3596,4.2398,8.1836,1.0803,-1.7792,0.6968,-0.237,-0.5206,-2.1444,18.0,6.35,-11.75,-37.7,274.57,-23.07,-23.64,3.1,960.93,47.077,43.43778,-96.690025,1334.19,1422.826814170571,,0.0,145.1613,,9 / 20,15009,2018-06-18 23:01:03:157
1.5689,1.9787,9.2569,0.2105,0.2566,9.8043,1.3584,1.7222,-0.5474,-0.8242,0.3483,1.0235,55.0,4.05,-3.55,-39.9,238.69,-1.5,-1.23,3.1,960.9,41.759,43.437763,-96.69006,1333.87,1422.826814170571,,0.0,119.35484,,10 / 20,15507,2018-06-18 23:01:03:655
2.7836,0.7582,11.0596,0.2868,1.3574,9.7114,2.4968,-0.5992,1.3482,0.4533,-0.2213,-3.481,79.0,14.5,2.2,-38.4,294.0,-7.95,-1.69,3.1,960.85,42.583,43.437763,-96.69006,1333.87,1422.826814170571,,0.0,119.35484,,10 / 20,16007,2018-06-18 23:01:04:155
0.1929,5.0393,12.3219,-0.5169,3.8798,8.9952,-2.2726,0.7707,2.388,-0.1736,0.1614,0.1513,175.0,5.55,0.5,-40.05,342.39,-22.33,1.24,3.1,960.8,42.461,43.437683,-96.69017,1332.58,1422.826814170571,,0.0,116.12903,,12 / 20,16506,2018-06-18 23:01:04:654
-0.8848,3.9325,8.2434,-0.9879,3.4107,9.1448,0.1031,0.5218,-0.9014,-0.3497,-0.7686,-0.7784,129.0,0.2,-5.6,-40.45,27.65,-20.35,6.17,3.1,960.82,41.918,43.437683,-96.69017,1332.58,1422.826814170571,,0.0,116.12903,,12 / 20,17010,2018-06-18 23:01:05:158
1.7747,2.9228,9.0596,1.7554,2.4526,9.3347,0.0193,0.4702,-0.2751,0.5342,-0.7055,-0.3172,5.0,-6.3,1.5,-38.3,2.67,-12.65,-8.25,3.1,960.86,42.88,43.437668,-96.6902,1331.61,1422.826814170571,,0.0,103.22581,,12 / 20,17507,2018-06-18 23:01:05:655
1.2309,1.5635,11.4001,0.0472,1.6313,9.6732,1.1837,-0.0678,1.727,0.0415,1.0581,0.0636,6.0,-13.35,4.7,-35.25,50.01,-9.57,-0.28,3.1,960.89,46.277,43.437668,-96.6902,1331.61,1422.826814170571,,0.0,103.22581,,12 / 20,18010,2018-06-18 23:01:06:158
-1.0168,1.7755,9.4105,-1.0471,1.7044,9.6039,0.0302,0.0711,-0.1934,-0.2911,-0.6181,-1.9524,12.0,-4.1,1.45,-35.85,47.87,-10.01,6.22,3.1,960.8,47.707,43.437847,-96.69011,1333.55,1422.826814170571,,0.0,335.4839,,13 / 20,18507,2018-06-18 23:01:06:655
0.1334,-0.9924,9.7883,-0.3506,0.7514,9.7748,1.4457,-0.9655,-0.5654,0.8748,-0.0376,0.082,3.0,-11.0,-0.95,-33.3,95.34,0.17,1.24,3.1,960.89,46.953,43.437847,-96.69011,1333.55,1421.183891267811,,0.0,335.4839,,13 / 20,19007,2018-06-18 23:01:07:155
4.0617,1.8262,9.0708,3.6397,1.7937,8.9313,0.422,0.0325,0.1395,-0.8139,-0.3297,-1.0842,2.0,-18.0,-11.3,-28.4,128.37,-10.54,-22.17,3.1,960.83,45.219,43.43791,-96.690094,1332.58,1421.183891267811,,0.0,396.7742,,13 / 20,19507,2018-06-18 23:01:07:655
5.3587,1.4732,8.577,4.3753,1.0796,8.7135,0.6417,0.9433,-0.4395,-0.069,0.4956,0.5971,13.0,-24.8,-14.9,-22.3,132.71,-6.32,-26.66,3.1,960.85,51.308,43.43791,-96.690094,1332.58,1421.183891267811,,0.0,396.7742,,13 / 20,20009,2018-06-18 23:01:08:157
2.5374,1.8273,10.3957,2.992,2.1179,9.0993,-0.92,0.1885,1.1435,-0.326,0.4629,-1.0645,18.0,-23.05,-18.6,-24.25,130.08,-12.47,-18.2,3.1,960.95,52.048,43.438152,-96.69015,1334.52,1421.183891267811,,0.0,306.45163,,13 / 20,20507,2018-06-18 23:01:08:655
2.0392,0.9061,10.442,2.0412,1.8317,9.4187,-0.4145,-1.0044,1.0814,0.22,-0.5446,-0.29,227.0,-17.55,-23.1,-26.2,142.78,-10.54,-10.06,3.1,960.86,44.585,43.438152,-96.69015,1334.52,1421.183891267811,,0.0,306.45163,,13 / 20,21007,2018-06-18 23:01:09:155
-1.7047,3.6563,6.9737,0.6998,5.4059,8.1561,-2.5541,-2.7303,-0.3278,0.6376,-0.7361,-0.5987,49.0,-7.95,-31.7,-26.1,159.03,-28.9,-4.76,3.1,960.77,43.717,43.43814,-96.69014,1335.16,1421.183891267811,,0.0,338.70966,,13 / 20,21506,2018-06-18 23:01:09:654
0.3786,4.7972,7.3916,0.9109,5.1747,8.2841,-0.5323,-0.3775,-0.8924,-0.572,-0.1981,0.4557,60.0,-2.5,-36.15,-23.15,181.64,-31.84,-6.27,3.1,960.83,43.717,43.43814,-96.69014,1335.16,1421.183891267811,,0.0,338.70966,,13 / 20,22007,2018-06-18 23:01:10:155
2.8963,3.4991,9.1758,2.58,3.9108,8.6188,0.3163,-0.4116,0.557,0.4975,-1.0578,0.1422,138.0,-0.9,-31.75,-25.6,198.61,-23.49,-16.67,3.1,960.82,42.564,43.438076,-96.690125,1338.39,1421.183891267811,,0.0,325.80646,,14 / 20,22506,2018-06-18 23:01:10:654
2.8956,4.5453,7.9557,2.8538,4.441,8.2685,0.0418,0.1043,-0.3128,-0.1244,0.0501,-0.318,185.0,-5.1,-35.7,-22.55,187.35,-26.92,-19.04,3.1,960.78,42.423,43.438076,-96.690125,1338.39,1421.183891267811,,0.0,325.80646,,14 / 20,23008,2018-06-18 23:01:11:156
3.4428,4.0438,8.6478,4.2301,2.9022,8.3616,-0.7872,1.1417,0.2862,-0.6448,-0.1257,0.9087,99.0,-4.9,-36.1,-23.95,193.1,-17.21,-26.83,3.1,960.91,45.439,43.438103,-96.690125,1334.19,1421.183891267811,,0.0,290.3226,,14 / 20,23506,2018-06-18 23:01:11:654
0.1802,0.1049,9.4519,0.6803,2.2524,9.5235,0.7218,-3.4057,0.5435,0.8855,0.6442,0.7518,113.0,-9.8,-24.65,-30.05,161.18,-9.53,-6.28,3.1,960.89,60.981,43.438103,-96.690125,1334.19,1421.183891267811,,0.0,290.3226,,14 / 20,24007,2018-06-18 23:01:12:155
1.5487,0.5422,10.2371,0.2709,1.8172,9.6364,1.2777,-1.275,0.6007,0.2309,0.11,0.0993,187.0,-10.15,-25.0,-32.5,153.93,-10.68,-1.61,3.1,960.84,40.4,43.438103,-96.690125,1334.19,1421.183891267811,,0.0,300.0,,14 / 20,24506,2018-06-18 23:01:12:654
-0.3223,2.367,9.8331,0.3621,1.8829,9.6206,-0.6844,0.4841,0.2124,0.012,-0.0027,-0.6155,177.0,-10.2,-25.5,-32.25,156.72,-10.21,-3.36,3.1,960.9,41.768,43.438103,-96.690125,1334.19,1421.183891267811,,0.0,300.0,,14 / 20,25006,2018-06-18 23:01:13:154
-0.3042,2.6106,9.9039,-0.0439,1.6885,9.6635,-0.2603,0.9221,0.2404,0.0229,-0.0511,0.2828,150.0,-7.25,-25.35,-33.75,157.37,-9.48,1.62,3.1,960.9,56.336,43.438087,-96.69011,1332.58,1421.183891267811,,0.0,225.80644,,14 / 20,25507,2018-06-18 23:01:13:655
0.8592,0.0404,8.6278,0.4949,1.3598,9.7025,0.3643,-1.3194,-1.0748,0.0714,0.3704,-0.4953,85.0,-7.7,-22.95,-35.05,160.85,-7.97,-2.92,3.1,960.91,47.897,43.438087,-96.69011,1332.58,1421.183891267811,,0.0,225.80644,,14 / 20,26007,2018-06-18 23:01:14:155
-0.4066,-0.034,11.9003,0.3994,1.5138,9.6841,-0.8059,-1.5478,2.2161,0.6557,-0.9643,1.0871,85.0,-5.85,-24.2,-36.75,157.13,-9.36,2.28,3.1,960.89,48.457,43.438072,-96.6901,1331.61,1421.183891267811,,0.0,174.19356,,14 / 20,26506,2018-06-18 23:01:14:654
0.7088,2.6175,9.8066,1.2842,1.9466,9.5287,-0.5754,0.6709,0.2778,0.1486,-0.0796,-0.1206,47.0,-13.15,-23.05,-34.8,151.81,-11.44,-7.68,3.1,960.96,44.24,43.438072,-96.6901,1331.61,1421.183891267811,,0.0,174.19356,,14 / 20,27010,2018-06-18 23:01:15:158
0.9366,-1.0902,9.6299,0.6296,-0.3892,9.782,0.307,-0.701,-0.1521,-0.7417,-0.3862,0.3654,7.0,-15.05,-18.25,-34.4,146.57,2.27,-3.68,3.1,960.89,46.387,43.438072,-96.6901,1331.61,1421.183891267811,,0.0,174.19356,,15 / 21,27507,2018-06-18 23:01:15:655
1.9933,-2.0141,9.7031,2.0982,-1.6596,9.4382,-0.1049,-0.3545,0.2649,-0.0679,-0.1664,0.1872,1.0,-16.2,-12.25,-36.2,156.97,9.74,-12.53,3.1,960.87,45.691,43.438072,-96.6901,1331.61,1421.183891267811,,0.0,174.19356,,15 / 21,28010,2018-06-18 23:01:16:158
2.2262,-1.4053,9.5979,2.328,-1.7421,9.3692,0.1726,0.1642,0.3226,0.0826,0.008,0.0197,1.0,-18.9,-9.2,-34.9,147.51,10.23,-13.95,3.1,960.94,44.265,43.43806,-96.690094,1331.29,1421.183891267811,,0.0,122.58065,,15 / 21,28507,2018-06-18 23:01:16:655
2.3964,-1.4283,9.5717,2.5968,-1.6439,9.316,-0.2503,0.0352,0.1935,-0.1675,-0.0506,-0.1771,1.0,-18.9,-9.85,-34.25,150.48,9.65,-15.58,3.1,960.88,45.374,43.43806,-96.690094,1331.29,1421.183891267811,,0.0,122.58065,,15 / 21,29010,2018-06-18 23:01:17:158
2.9635,-1.4424,9.745,2.8827,-1.2219,9.2969,0.5131,-0.536,0.3893,0.4898,0.0165,-0.2692,1.0,-21.0,-9.7,-33.5,144.88,7.16,-17.23,3.1,960.86,45.267,43.43807,-96.690094,1331.29,1421.183891267811,,0.0,106.451614,,16 / 21,29507,2018-06-18 23:01:17:655
2.2573,0.6489,9.3096,2.5721,2.1271,9.2246,0.0723,-1.6969,0.2893,0.3414,-0.2834,-1.7651,1.0,-18.85,-16.85,-32.9,142.96,-7.2,-15.9,3.1,960.93,43.999,43.43807,-96.690094,1331.29,1421.183891267811,,0.0,106.451614,,16 / 21,30007,2018-06-18 23:01:18:155
0.4221,4.0835,9.1288,2.0427,3.9723,8.734,-1.6205,0.1112,0.3947,-0.5281,0.012,-2.2293,66.0,-6.95,-32.65,-30.15,180.05,-23.89,-13.16,3.1,960.94,44.158,43.43807,-96.690094,1331.29,1421.183891267811,,0.0,106.451614,,16 / 21,30506,2018-06-18 23:01:18:654
0.4627,3.3063,9.6446,0.0142,2.6013,9.4587,0.1355,0.262,0.9682,-0.31,-0.5736,-1.4357,86.0,14.1,-23.05,-33.25,226.29,-15.38,-0.09,3.1,960.85,43.706,43.43807,-96.690094,1331.29,1421.183891267811,,0.0,106.451614,,16 / 21,31006,2018-06-18 23:01:19:154
1.084,2.044,9.1026,0.7005,1.7548,9.6262,-0.2058,-0.1313,-0.8068,0.1348,-0.0117,-0.9409,112.0,12.7,-2.1,-37.25,281.58,-8.71,-5.7,3.1,960.91,43.146,43.43807,-96.690094,1331.29,1421.183891267811,,0.0,106.451614,,16 / 21,31506,2018-06-18 23:01:19:654
0.1852,1.3405,8.2011,0.6197,2.1979,9.5404,-0.726,-1.0305,-0.8785,-0.0879,0.0011,-0.6362,98.0,8.35,2.3,-38.0,314.09,-13.14,-4.21,3.1,960.88,47.353,43.43807,-96.690094,1331.29,1421.183891267811,,0.0,106.451614,,16 / 21,32010,2018-06-18 23:01:20:158
2.0162,0.7565,10.3007,0.9134,1.3679,9.6711,1.5993,-1.259,0.1325,0.0487,-0.1939,-1.3777,21.0,1.4,5.2,-35.35,336.37,-8.02,-5.4,3.1,960.94,47.91,43.43808,-96.690094,1331.61,1421.183891267811,,0.0,74.19355,,16 / 20,32507,2018-06-18 23:01:20:655
1.0625,1.2679,10.1028,1.1339,1.2526,9.6633,0.3331,0.1343,0.0377,-0.1161,-0.2213,-0.6317,2.0,-7.95,6.0,-33.45,21.79,-7.34,-6.69,3.1,960.94,48.749,43.43808,-96.690094,1331.61,1421.183891267811,,0.0,74.19355,,16 / 20,33010,2018-06-18 23:01:21:158
0.4476,0.7688,9.7738,0.9408,0.6498,9.7431,-0.7582,0.2121,0.4018,-0.4658,0.3119,-1.5633,50.0,-16.0,5.55,-30.0,58.26,-3.8,-5.52,3.1,960.82,50.364,43.43808,-96.690094,1331.61,1421.183891267811,,0.0,74.19355,,16 / 21,33507,2018-06-18 23:01:21:655
0.2841,0.6016,10.4004,1.0724,1.0165,9.698,-0.9353,-0.2394,0.2262,0.0312,-0.1198,-1.8557,2.0,-17.25,4.0,-28.6,62.43,-5.95,-6.31,3.1,960.86,48.205,43.43808,-96.690094,1331.61,1421.183891267811,,0.0,74.19355,,16 / 21,34010,2018-06-18 23:01:22:158
0.2841,0.6016,10.4004,1.0724,1.0165,9.698,-0.9353,-0.2394,0.2262,0.0312,-0.1198,-1.8557,11.0,-17.25,4.0,-28.6,62.43,-5.95,-6.31,3.1,960.85,54.201,43.43808,-96.690094,1331.61,1421.183891267811,,0.0,74.19355,,16 / 21,34507,2018-06-18 23:01:22:655
0.2841,0.6016,10.4004,1.0724,1.0165,9.698,-0.9353,-0.2394,0.2262,0.0312,-0.1198,-1.8557,13.0,-17.25,4.0,-28.6,62.43,-5.95,-6.31,3.1,960.88,50.106,43.43808,-96.690094,1331.61,1421.183891267811,,0.0,74.19355,,16 / 21,35009,2018-06-18 23:01:23:157
0.2841,0.6016,10.4004,1.0724,1.0165,9.698,-0.9353,-0.2394,0.2262,0.0312,-0.1198,-1.8557,13.0,-17.25,4.0,-28.6,62.43,-5.95,-6.31,3.1,960.88,48.951,43.438087,-96.690094,1331.29,1421.183891267811,,0.0,54.83871,,16 / 21,35506,2018-06-18 23:01:23:654
2.1072,0.9562,10.4921,2.3545,0.6995,9.4975,-0.2473,0.2567,0.9947,0.2892,0.2906,0.5776,11.0,-18.4,1.85,-27.8,68.44,-4.09,-13.92,3.1,960.89,52.295,43.438087,-96.690094,1331.29,1421.183891267811,,0.0,54.83871,,16 / 21,36007,2018-06-18 23:01:24:155
2.1602,2.7507,8.5823,1.9391,1.7725,9.4516,0.0238,1.5382,-1.1206,0.0639,0.1912,-0.0735,0.0,-21.85,-9.1,-25.45,102.38,-10.41,-11.59,3.1,960.82,43.157,43.438107,-96.690094,1330.32,1421.183891267811,,0.0,51.612904,,16 / 21,36507,2018-06-18 23:01:24:655
-0.1025,1.268,10.7523,0.6758,1.7702,9.6251,-0.7784,-0.5022,1.1272,-0.2743,0.09,1.0567,7.0,-16.75,-8.85,-30.5,102.29,-10.4,-4.02,3.1,960.92,52.004,43.438107,-96.690094,1330.32,1421.183891267811,,0.0,51.612904,,16 / 21,37007,2018-06-18 23:01:25:155
0.8835,2.6468,11.5176,0.6986,1.0108,9.7326,0.1849,1.6359,1.785,-0.2802,-0.0799,-0.2328,10.0,-16.0,4.2,-35.85,59.77,-5.91,-4.11,3.1,960.8,39.834,43.43816,-96.69009,1327.42,1421.183891267811,,0.0,48.387096,,16 / 21,37507,2018-06-18 23:01:25:655
1.3864,1.2634,12.0242,0.1894,1.1123,9.7447,1.1971,0.151,2.2795,0.9151,0.6216,0.2695,18.0,-16.0,5.65,-36.15,56.62,-6.51,-1.11,3.1,960.89,41.028,43.43816,-96.69009,1327.42,1421.183891267811,,0.0,48.387096,,16 / 21,38007,2018-06-18 23:01:26:155
1.3864,1.2634,12.0242,0.1894,1.1123,9.7447,1.1971,0.151,2.2795,0.9151,0.6216,0.2695,23.0,-16.0,5.65,-36.15,56.62,-6.51,-1.11,3.1,960.97,48.789,43.438187,-96.69009,1325.81,1421.183891267811,,0.0,48.387096,,15 / 20,38507,2018-06-18 23:01:26:655
1.3864,1.2634,12.0242,0.1894,1.1123,9.7447,1.1971,0.151,2.2795,0.9151,0.6216,0.2695,103.0,-16.0,5.65,-36.15,56.62,-6.51,-1.11,3.1,961.0,59.715,43.438187,-96.69009,1325.81,1421.183891267811,,0.0,48.387096,,15 / 20,39006,2018-06-18 23:01:27:154
1.3864,1.2634,12.0242,0.1894,1.1123,9.7447,1.1971,0.151,2.2795,0.9151,0.6216,0.2695,106.0,-16.0,5.65,-36.15,56.62,-6.51,-1.11,3.1,960.84,62.606,43.438187,-96.69009,1325.81,1421.183891267811,,0.0,48.387096,,15 / 21,39507,2018-06-18 23:01:27:655
1.3864,1.2634,12.0242,0.1894,1.1123,9.7447,1.1971,0.151,2.2795,0.9151,0.6216,0.2695,19.0,-16.0,5.65,-36.15,56.62,-6.51,-1.11,3.1,960.92,41.55,43.438187,-96.69009,1325.81,1421.183891267811,,0.0,48.387096,,15 / 21,40007,2018-06-18 23:01:28:155
1.3864,1.2634,12.0242,0.1894,1.1123,9.7447,1.1971,0.151,2.2795,0.9151,0.6216,0.2695,6.0,-16.0,5.65,-36.15,56.62,-6.51,-1.11,3.1,960.92,55.27,43.438187,-96.69009,1325.81,1421.183891267811,,0.0,48.387096,,15 / 21,40506,2018-06-18 23:01:28:654
1.3864,1.2634,12.0242,0.1894,1.1123,9.7447,1.1971,0.151,2.2795,0.9151,0.6216,0.2695,0.0,-16.0,5.65,-36.15,56.62,-6.51,-1.11,3.1,960.76,38.776,43.438187,-96.69009,1325.81,1421.183891267811,,0.0,48.387096,,15 / 21,41011,2018-06-18 23:01:29:159
1.3864,1.2634,12.0242,0.1894,1.1123,9.7447,1.1971,0.151,2.2795,0.9151,0.6216,0.2695,0.0,-16.0,5.65,-36.15,56.62,-6.51,-1.11,3.1,960.76,67.622,43.4382,-96.69008,1325.48,1421.183891267811,,0.0,41.935486,,15 / 21,41506,2018-06-18 23:01:29:654
1.3864,1.2634,12.0242,0.1894,1.1123,9.7447,1.1971,0.151,2.2795,0.9151,0.6216,0.2695,0.0,-16.0,5.65,-36.15,56.62,-6.51,-1.11,3.1,960.8,63.337,43.4382,-96.69008,1325.48,NaN,,0.0,41.935486,,15 / 21,42013,2018-06-18 23:01:30:161
1.3864,1.2634,12.0242,0.1894,1.1123,9.7447,1.1971,0.151,2.2795,0.9151,0.6216,0.2695,0.0,-16.0,5.65,-36.15,56.62,-6.51,-1.11,3.1,960.88,55.226,43.4382,-96.69008,1325.48,NaN,,0.0,41.935486,,15 / 21,42506,2018-06-18 23:01:30:654
1.3864,1.2634,12.0242,0.1894,1.1123,9.7447,1.1971,0.151,2.2795,0.9151,0.6216,0.2695,0.0,-16.0,5.65,-36.15,56.62,-6.51,-1.11,3.1,960.8,48.543,43.4382,-96.69008,1325.48,NaN,,0.0,41.935486,,15 / 21,43011,2018-06-18 23:01:31:159
1.3864,1.2634,12.0242,0.1894,1.1123,9.7447,1.1971,0.151,2.2795,0.9151,0.6216,0.2695,23.0,-16.0,5.65,-36.15,56.62,-6.51,-1.11,3.1,960.85,48.566,43.4382,-96.69008,1325.48,NaN,,0.0,41.935486,,15 / 21,43506,2018-06-18 23:01:31:654
1.3864,1.2634,12.0242,0.1894,1.1123,9.7447,1.1971,0.151,2.2795,0.9151,0.6216,0.2695,46.0,-16.0,5.65,-36.15,56.62,-6.51,-1.11,3.1,960.77,54.878,43.4382,-96.69008,1325.48,NaN,,0.0,41.935486,,15 / 21,44011,2018-06-18 23:01:32:159
1.3864,1.2634,12.0242,0.1894,1.1123,9.7447,1.1971,0.151,2.2795,0.9151,0.6216,0.2695,13.0,-16.0,5.65,-36.15,56.62,-6.51,-1.11,3.1,960.85,43.143,43.438183,-96.69008,1325.81,NaN,,0.0,41.935486,,15 / 21,44507,2018-06-18 23:01:32:655
1.3864,1.2634,12.0242,0.1894,1.1123,9.7447,1.1971,0.151,2.2795,0.9151,0.6216,0.2695,0.0,-16.0,5.65,-36.15,56.62,-6.51,-1.11,3.1,960.77,45.212,43.438183,-96.69008,1325.81,NaN,,0.0,41.935486,,15 / 21,45011,2018-06-18 23:01:33:159
1.3864,1.2634,12.0242,0.1894,1.1123,9.7447,1.1971,0.151,2.2795,0.9151,0.6216,0.2695,136.0,-16.0,5.65,-36.15,56.62,-6.51,-1.11,3.1,960.85,57.678,43.438183,-96.69008,1325.81,NaN,,0.0,41.935486,,15 / 21,45506,2018-06-18 23:01:33:654
1.3864,1.2634,12.0242,0.1894,1.1123,9.7447,1.1971,0.151,2.2795,0.9151,0.6216,0.2695,412.0,-16.0,5.65,-36.15,56.62,-6.51,-1.11,3.1,960.86,50.473,43.438183,-96.69008,1325.81,NaN,,0.0,41.935486,,15 / 21,46011,2018-06-18 23:01:34:159
1.3864,1.2634,12.0242,0.1894,1.1123,9.7447,1.1971,0.151,2.2795,0.9151,0.6216,0.2695,193.0,-16.0,5.65,-36.15,56.62,-6.51,-1.11,3.1,960.84,67.822,43.438183,-96.69008,1325.81,NaN,,0.0,41.935486,,15 / 21,46507,2018-06-18 23:01:34:655
1.3864,1.2634,12.0242,0.1894,1.1123,9.7447,1.1971,0.151,2.2795,0.9151,0.6216,0.2695,213.0,-16.0,5.65,-36.15,56.62,-6.51,-1.11,3.1,960.91,50.849,43.438183,-96.69008,1325.81,NaN,,0.0,41.935486,,15 / 21,47011,2018-06-18 23:01:35:159
1.3864,1.2634,12.0242,0.1894,1.1123,9.7447,1.1971,0.151,2.2795,0.9151,0.6216,0.2695,189.0,-16.0,5.65,-36.15,56.62,-6.51,-1.11,3.1,960.83,46.049,43.438183,-96.69008,1325.81,NaN,,0.0,41.935486,,15 / 21,47507,2018-06-18 23:01:35:655
1.3864,1.2634,12.0242,0.1894,1.1123,9.7447,1.1971,0.151,2.2795,0.9151,0.6216,0.2695,0.0,-16.0,5.65,-36.15,56.62,-6.51,-1.11,3.1,960.9,46.254,43.438183,-96.69008,1325.81,NaN,,0.0,41.935486,,15 / 21,48011,2018-06-18 23:01:36:159
1.3864,1.2634,12.0242,0.1894,1.1123,9.7447,1.1971,0.151,2.2795,0.9151,0.6216,0.2695,116.0,-16.0,5.65,-36.15,56.62,-6.51,-1.11,3.1,960.75,60.984,43.438183,-96.69008,1325.81,NaN,,0.0,41.935486,,15 / 20,48507,2018-06-18 23:01:36:655
1.3864,1.2634,12.0242,0.1894,1.1123,9.7447,1.1971,0.151,2.2795,0.9151,0.6216,0.2695,89.0,-16.0,5.65,-36.15,56.62,-6.51,-1.11,3.1,960.76,48.614,43.438183,-96.69008,1325.81,NaN,,0.0,41.935486,,15 / 20,49010,2018-06-18 23:01:37:158
1.3864,1.2634,12.0242,0.1894,1.1123,9.7447,1.1971,0.151,2.2795,0.9151,0.6216,0.2695,84.0,-16.0,5.65,-36.15,56.62,-6.51,-1.11,3.1,960.95,41.587,43.438183,-96.69008,1325.81,NaN,,0.0,41.935486,,15 / 21,49507,2018-06-18 23:01:37:655
1.3864,1.2634,12.0242,0.1894,1.1123,9.7447,1.1971,0.151,2.2795,0.9151,0.6216,0.2695,68.0,-16.0,5.65,-36.15,56.62,-6.51,-1.11,3.1,960.89,37.038,43.438183,-96.69008,1325.81,NaN,,0.0,41.935486,,15 / 21,50010,2018-06-18 23:01:38:158
1.3864,1.2634,12.0242,0.1894,1.1123,9.7447,1.1971,0.151,2.2795,0.9151,0.6216,0.2695,186.0,-16.0,5.65,-36.15,56.62,-6.51,-1.11,3.1,960.93,43.329,43.438183,-96.69008,1325.81,NaN,,0.0,41.935486,,14 / 20,50507,2018-06-18 23:01:38:655
1.3864,1.2634,12.0242,0.1894,1.1123,9.7447,1.1971,0.151,2.2795,0.9151,0.6216,0.2695,213.0,-16.0,5.65,-36.15,56.62,-6.51,-1.11,3.1,960.78,45.301,43.438183,-96.69008,1325.81,NaN,,0.0,41.935486,,14 / 20,51010,2018-06-18 23:01:39:158
1.3864,1.2634,12.0242,0.1894,1.1123,9.7447,1.1971,0.151,2.2795,0.9151,0.6216,0.2695,259.0,-16.0,5.65,-36.15,56.62,-6.51,-1.11,3.1,960.85,56.953,43.438046,-96.69002,1300.32,NaN,,0.0,45.16129,,14 / 21,51508,2018-06-18 23:01:39:656
1.3864,1.2634,12.0242,0.1894,1.1123,9.7447,1.1971,0.151,2.2795,0.9151,0.6216,0.2695,209.0,-16.0,5.65,-36.15,56.62,-6.51,-1.11,3.1,960.91,47.184,43.438046,-96.69002,1300.32,NaN,,0.0,45.16129,,14 / 21,52010,2018-06-18 23:01:40:158
1.3864,1.2634,12.0242,0.1894,1.1123,9.7447,1.1971,0.151,2.2795,0.9151,0.6216,0.2695,386.0,-16.0,5.65,-36.15,56.62,-6.51,-1.11,3.1,960.82,31.954,43.438046,-96.69002,1300.32,NaN,,0.0,45.16129,,14 / 21,52506,2018-06-18 23:01:40:654
1.3864,1.2634,12.0242,0.1894,1.1123,9.7447,1.1971,0.151,2.2795,0.9151,0.6216,0.2695,372.0,-16.0,5.65,-36.15,56.62,-6.51,-1.11,3.1,960.77,47.51,43.438046,-96.69002,1300.32,NaN,,0.0,45.16129,,14 / 21,53011,2018-06-18 23:01:41:159
1.3864,1.2634,12.0242,0.1894,1.1123,9.7447,1.1971,0.151,2.2795,0.9151,0.6216,0.2695,394.0,-16.0,5.65,-36.15,56.62,-6.51,-1.11,3.1,960.81,63.296,43.437927,-96.68998,1278.39,NaN,,0.0,67.741936,,14 / 21,53507,2018-06-18 23:01:41:655
1.3864,1.2634,12.0242,0.1894,1.1123,9.7447,1.1971,0.151,2.2795,0.9151,0.6216,0.2695,387.0,-16.0,5.65,-36.15,56.62,-6.51,-1.11,3.1,960.81,57.815,43.437927,-96.68998,1278.39,NaN,,0.0,67.741936,,14 / 21,54010,2018-06-18 23:01:42:158
1.3864,1.2634,12.0242,0.1894,1.1123,9.7447,1.1971,0.151,2.2795,0.9151,0.6216,0.2695,382.0,-16.0,5.65,-36.15,56.62,-6.51,-1.11,3.1,960.91,62.087,43.43783,-96.68993,1260.0,NaN,,0.0,80.64516,,14 / 21,54507,2018-06-18 23:01:42:655
1.3864,1.2634,12.0242,0.1894,1.1123,9.7447,1.1971,0.151,2.2795,0.9151,0.6216,0.2695,206.0,-16.0,5.65,-36.15,56.62,-6.51,-1.11,3.1,960.82,46.926,43.43783,-96.68993,1260.0,NaN,,0.0,80.64516,,14 / 21,55012,2018-06-18 23:01:43:160
1.3864,1.2634,12.0242,0.1894,1.1123,9.7447,1.1971,0.151,2.2795,0.9151,0.6216,0.2695,149.0,-16.0,5.65,-36.15,56.62,-6.51,-1.11,3.1,960.88,30.085,43.43783,-96.68993,1260.0,NaN,,0.0,80.64516,,14 / 21,55507,2018-06-18 23:01:43:655
1.3864,1.2634,12.0242,0.1894,1.1123,9.7447,1.1971,0.151,2.2795,0.9151,0.6216,0.2695,169.0,-16.0,5.65,-36.15,56.62,-6.51,-1.11,3.1,960.75,31.402,43.43783,-96.68993,1260.0,NaN,,0.0,80.64516,,14 / 21,56013,2018-06-18 23:01:44:161
1.3864,1.2634,12.0242,0.1894,1.1123,9.7447,1.1971,0.151,2.2795,0.9151,0.6216,0.2695,159.0,-16.0,5.65,-36.15,56.62,-6.51,-1.11,3.1,960.88,43.396,43.437885,-96.69,1266.77,NaN,,0.0,103.22581,,14 / 21,56507,2018-06-18 23:01:44:655
1.3864,1.2634,12.0242,0.1894,1.1123,9.7447,1.1971,0.151,2.2795,0.9151,0.6216,0.2695,19.0,-16.0,5.65,-36.15,56.62,-6.51,-1.11,3.1,960.91,63.661,43.437885,-96.69,1266.77,NaN,,0.0,103.22581,,14 / 21,57010,2018-06-18 23:01:45:158
1.3864,1.2634,12.0242,0.1894,1.1123,9.7447,1.1971,0.151,2.2795,0.9151,0.6216,0.2695,106.0,-16.0,5.65,-36.15,56.62,-6.51,-1.11,3.1,960.88,67.225,43.437885,-96.69,1266.77,NaN,,0.0,103.22581,,14 / 21,57507,2018-06-18 23:01:45:655
1.3864,1.2634,12.0242,0.1894,1.1123,9.7447,1.1971,0.151,2.2795,0.9151,0.6216,0.2695,108.0,-16.0,5.65,-36.15,56.62,-6.51,-1.11,3.1,960.91,53.857,43.437885,-96.69,1266.77,NaN,,0.0,103.22581,,14 / 21,58011,2018-06-18 23:01:46:159
1.3864,1.2634,12.0242,0.1894,1.1123,9.7447,1.1971,0.151,2.2795,0.9151,0.6216,0.2695,98.0,-16.0,5.65,-36.15,56.62,-6.51,-1.11,3.1,960.89,52.892,43.437885,-96.68998,1267.1,NaN,,0.0,109.677414,,13 / 20,58507,2018-06-18 23:01:46:655
1.3864,1.2634,12.0242,0.1894,1.1123,9.7447,1.1971,0.151,2.2795,0.9151,0.6216,0.2695,103.0,-16.0,5.65,-36.15,56.62,-6.51,-1.11,3.1,960.83,62.603,43.437885,-96.68998,1267.1,NaN,,0.0,109.677414,,13 / 20,59009,2018-06-18 23:01:47:157
1.3864,1.2634,12.0242,0.1894,1.1123,9.7447,1.1971,0.151,2.2795,0.9151,0.6216,0.2695,106.0,-16.0,5.65,-36.15,56.62,-6.51,-1.11,3.1,960.83,41.144,43.437897,-96.68998,1267.74,NaN,,0.0,106.451614,,14 / 21,59506,2018-06-18 23:01:47:654
1.3864,1.2634,12.0242,0.1894,1.1123,9.7447,1.1971,0.151,2.2795,0.9151,0.6216,0.2695,103.0,-16.0,5.65,-36.15,56.62,-6.51,-1.11,3.1,960.86,30.88,43.437897,-96.68998,1267.74,NaN,,0.0,106.451614,,14 / 21,60012,2018-06-18 23:01:48:160
1.3864,1.2634,12.0242,0.1894,1.1123,9.7447,1.1971,0.151,2.2795,0.9151,0.6216,0.2695,106.0,-16.0,5.65,-36.15,56.62,-6.51,-1.11,3.1,960.86,44.06,43.437897,-96.68998,1267.74,NaN,,0.0,106.451614,,14 / 21,60507,2018-06-18 23:01:48:655
1.3864,1.2634,12.0242,0.1894,1.1123,9.7447,1.1971,0.151,2.2795,0.9151,0.6216,0.2695,106.0,-16.0,5.65,-36.15,56.62,-6.51,-1.11,3.1,960.86,39.65,43.437897,-96.68998,1267.74,NaN,,0.0,106.451614,,14 / 21,61011,2018-06-18 23:01:49:159
1.3864,1.2634,12.0242,0.1894,1.1123,9.7447,1.1971,0.151,2.2795,0.9151,0.6216,0.2695,103.0,-16.0,5.65,-36.15,56.62,-6.51,-1.11,3.1,960.83,60.259,43.437897,-96.68998,1267.74,NaN,,0.0,106.451614,,14 / 21,61507,2018-06-18 23:01:49:655
1.3864,1.2634,12.0242,0.1894,1.1123,9.7447,1.1971,0.151,2.2795,0.9151,0.6216,0.2695,103.0,-16.0,5.65,-36.15,56.62,-6.51,-1.11,3.1,960.83,60.427,43.437897,-96.68998,1267.74,NaN,,0.0,106.451614,,14 / 21,62012,2018-06-18 23:01:50:160
1.3864,1.2634,12.0242,0.1894,1.1123,9.7447,1.1971,0.151,2.2795,0.9151,0.6216,0.2695,108.0,-16.0,5.65,-36.15,56.62,-6.51,-1.11,3.1,960.81,32.475,43.4379,-96.689964,1270.0,NaN,,0.0,80.64516,,14 / 21,62506,2018-06-18 23:01:50:654
1.3864,1.2634,12.0242,0.1894,1.1123,9.7447,1.1971,0.151,2.2795,0.9151,0.6216,0.2695,106.0,-16.0,5.65,-36.15,56.62,-6.51,-1.11,3.1,960.81,36.182,43.4379,-96.689964,1270.0,1421.489867974313,,0.0,80.64516,,14 / 21,63011,2018-06-18 23:01:51:159
1.3864,1.2634,12.0242,0.1894,1.1123,9.7447,1.1971,0.151,2.2795,0.9151,0.6216,0.2695,101.0,-16.0,5.65,-36.15,56.62,-6.51,-1.11,3.1,960.84,31.623,43.4379,-96.689964,1270.0,1421.489867974313,,0.0,80.64516,,14 / 21,63507,2018-06-18 23:01:51:655
1.3864,1.2634,12.0242,0.1894,1.1123,9.7447,1.1971,0.151,2.2795,0.9151,0.6216,0.2695,106.0,-16.0,5.65,-36.15,56.62,-6.51,-1.11,3.1,960.96,30.107,43.4379,-96.689964,1270.0,1421.489867974313,,0.0,80.64516,,14 / 21,64012,2018-06-18 23:01:52:160
1.3864,1.2634,12.0242,0.1894,1.1123,9.7447,1.1971,0.151,2.2795,0.9151,0.6216,0.2695,106.0,-16.0,5.65,-36.15,56.62,-6.51,-1.11,3.1,960.9,67.39,43.437912,-96.68996,1268.71,1421.489867974313,,0.0,67.741936,,14 / 21,64507,2018-06-18 23:01:52:655
1.3864,1.2634,12.0242,0.1894,1.1123,9.7447,1.1971,0.151,2.2795,0.9151,0.6216,0.2695,101.0,-16.0,5.65,-36.15,56.62,-6.51,-1.11,3.1,960.81,35.954,43.437912,-96.68996,1268.71,1421.489867974313,,0.0,67.741936,,14 / 21,65010,2018-06-18 23:01:53:158
1.3864,1.2634,12.0242,0.1894,1.1123,9.7447,1.1971,0.151,2.2795,0.9151,0.6216,0.2695,99.0,-16.0,5.65,-36.15,56.62,-6.51,-1.11,3.1,960.9,33.599,43.437912,-96.68996,1268.71,1421.489867974313,,0.0,67.741936,,14 / 21,65507,2018-06-18 23:01:53:655
1.3864,1.2634,12.0242,0.1894,1.1123,9.7447,1.1971,0.151,2.2795,0.9151,0.6216,0.2695,88.0,-16.0,5.65,-36.15,56.62,-6.51,-1.11,3.1,960.88,48.026,43.437912,-96.68996,1268.71,1421.489867974313,,0.0,67.741936,,14 / 21,66010,2018-06-18 23:01:54:158
1.3864,1.2634,12.0242,0.1894,1.1123,9.7447,1.1971,0.151,2.2795,0.9151,0.6216,0.2695,56.0,-16.0,5.65,-36.15,56.62,-6.51,-1.11,3.1,960.85,41.201,43.43792,-96.68995,1268.71,1421.489867974313,,0.0,51.612904,,14 / 21,66507,2018-06-18 23:01:54:655
1.3864,1.2634,12.0242,0.1894,1.1123,9.7447,1.1971,0.151,2.2795,0.9151,0.6216,0.2695,41.0,-16.0,5.65,-36.15,56.62,-6.51,-1.11,3.1,961.08,44.024,43.43792,-96.68995,1268.71,1421.489867974313,,0.0,51.612904,,14 / 21,67011,2018-06-18 23:01:55:159
1.3864,1.2634,12.0242,0.1894,1.1123,9.7447,1.1971,0.151,2.2795,0.9151,0.6216,0.2695,4.0,-16.0,5.65,-36.15,56.62,-6.51,-1.11,3.1,961.08,41.775,43.43792,-96.68995,1268.71,1421.489867974313,,0.0,51.612904,,14 / 21,67508,2018-06-18 23:01:55:656
1.3864,1.2634,12.0242,0.1894,1.1123,9.7447,1.1971,0.151,2.2795,0.9151,0.6216,0.2695,0.0,-16.0,5.65,-36.15,56.62,-6.51,-1.11,3.1,960.97,47.927,43.43792,-96.68995,1268.71,1421.489867974313,,0.0,51.612904,,14 / 21,68011,2018-06-18 23:01:56:159
1.3864,1.2634,12.0242,0.1894,1.1123,9.7447,1.1971,0.151,2.2795,0.9151,0.6216,0.2695,3.0,-16.0,5.65,-36.15,56.62,-6.51,-1.11,3.1,960.89,53.103,43.437927,-96.68995,1269.68,1421.489867974313,,0.0,45.16129,,15 / 21,68507,2018-06-18 23:01:56:655
1.3864,1.2634,12.0242,0.1894,1.1123,9.7447,1.1971,0.151,2.2795,0.9151,0.6216,0.2695,0.0,-16.0,5.65,-36.15,56.62,-6.51,-1.11,3.1,960.89,55.711,43.437927,-96.68995,1269.68,1421.489867974313,,0.0,45.16129,,15 / 21,69011,2018-06-18 23:01:57:159
1.3864,1.2634,12.0242,0.1894,1.1123,9.7447,1.1971,0.151,2.2795,0.9151,0.6216,0.2695,2.0,-16.0,5.65,-36.15,56.62,-6.51,-1.11,3.1,960.88,57.763,43.437927,-96.68995,1269.68,1421.489867974313,,0.0,45.16129,,15 / 21,69507,2018-06-18 23:01:57:655
1.3864,1.2634,12.0242,0.1894,1.1123,9.7447,1.1971,0.151,2.2795,0.9151,0.6216,0.2695,0.0,-16.0,5.65,-36.15,56.62,-6.51,-1.11,3.1,961.0,56.528,43.437927,-96.68995,1269.68,1421.489867974313,,0.0,45.16129,,15 / 21,70011,2018-06-18 23:01:58:159
1.3864,1.2634,12.0242,0.1894,1.1123,9.7447,1.1971,0.151,2.2795,0.9151,0.6216,0.2695,4.0,-16.0,5.65,-36.15,56.62,-6.51,-1.11,3.1,960.88,51.123,43.437935,-96.68995,1270.65,1421.489867974313,,0.0,41.935486,,14 / 20,70507,2018-06-18 23:01:58:655
1.3864,1.2634,12.0242,0.1894,1.1123,9.7447,1.1971,0.151,2.2795,0.9151,0.6216,0.2695,4.0,-16.0,5.65,-36.15,56.62,-6.51,-1.11,3.1,960.88,49.652,43.437935,-96.68995,1270.65,1421.489867974313,,0.0,41.935486,,14 / 20,71012,2018-06-18 23:01:59:160
1.3864,1.2634,12.0242,0.1894,1.1123,9.7447,1.1971,0.151,2.2795,0.9151,0.6216,0.2695,5.0,-16.0,5.65,-36.15,56.62,-6.51,-1.11,3.1,960.88,47.433,43.437935,-96.68995,1270.65,1421.489867974313,,0.0,41.935486,,14 / 21,71508,2018-06-18 23:01:59:656
1.3864,1.2634,12.0242,0.1894,1.1123,9.7447,1.1971,0.151,2.2795,0.9151,0.6216,0.2695,4.0,-16.0,5.65,-36.15,56.62,-6.51,-1.11,3.1,960.91,43.897,43.437935,-96.68995,1270.65,1421.489867974313,,0.0,41.935486,,14 / 21,72010,2018-06-18 23:02:00:158
1.3864,1.2634,12.0242,0.1894,1.1123,9.7447,1.1971,0.151,2.2795,0.9151,0.6216,0.2695,0.0,-16.0,5.65,-36.15,56.62,-6.51,-1.11,3.1,960.95,44.011,43.437943,-96.68995,1271.61,1421.489867974313,,0.0,41.935486,,14 / 21,72506,2018-06-18 23:02:00:654
1.3864,1.2634,12.0242,0.1894,1.1123,9.7447,1.1971,0.151,2.2795,0.9151,0.6216,0.2695,3.0,-16.0,5.65,-36.15,56.62,-6.51,-1.11,3.1,960.95,44.918,43.437943,-96.68995,1271.61,1421.489867974313,,0.0,41.935486,,14 / 21,73011,2018-06-18 23:02:01:159
1.3864,1.2634,12.0242,0.1894,1.1123,9.7447,1.1971,0.151,2.2795,0.9151,0.6216,0.2695,0.0,-16.0,5.65,-36.15,56.62,-6.51,-1.11,3.1,960.94,45.477,43.437943,-96.68995,1271.61,1421.489867974313,,0.0,41.935486,,13 / 20,73507,2018-06-18 23:02:01:655
1.3864,1.2634,12.0242,0.1894,1.1123,9.7447,1.1971,0.151,2.2795,0.9151,0.6216,0.2695,3.0,-16.0,5.65,-36.15,56.62,-6.51,-1.11,3.1,960.91,46.304,43.437943,-96.68995,1271.61,1421.489867974313,,0.0,41.935486,,13 / 20,74010,2018-06-18 23:02:02:158
1.3864,1.2634,12.0242,0.1894,1.1123,9.7447,1.1971,0.151,2.2795,0.9151,0.6216,0.2695,7.0,-16.0,5.65,-36.15,56.62,-6.51,-1.11,3.1,960.87,46.45,43.438175,-96.689766,1338.71,1421.489867974313,,0.9,41.935486,278.9,14 / 21,74508,2018-06-18 23:02:02:656
1.3864,1.2634,12.0242,0.1894,1.1123,9.7447,1.1971,0.151,2.2795,0.9151,0.6216,0.2695,3.0,-16.0,5.65,-36.15,56.62,-6.51,-1.11,3.1,960.91,46.229,43.438175,-96.689766,1338.71,1421.489867974313,,0.9,41.935486,278.9,14 / 21,75012,2018-06-18 23:02:03:160
1.3864,1.2634,12.0242,0.1894,1.1123,9.7447,1.1971,0.151,2.2795,0.9151,0.6216,0.2695,0.0,-16.0,5.65,-36.15,56.62,-6.51,-1.11,3.1,960.85,45.968,43.438183,-96.68977,1337.74,1421.489867974313,,0.0,38.709675,,14 / 21,75506,2018-06-18 23:02:03:654
1.3864,1.2634,12.0242,0.1894,1.1123,9.7447,1.1971,0.151,2.2795,0.9151,0.6216,0.2695,4.0,-16.0,5.65,-36.15,56.62,-6.51,-1.11,3.1,960.85,59.821,43.438183,-96.68977,1337.74,1421.489867974313,,0.0,38.709675,,14 / 21,76012,2018-06-18 23:02:04:160
1.3864,1.2634,12.0242,0.1894,1.1123,9.7447,1.1971,0.151,2.2795,0.9151,0.6216,0.2695,4.0,-16.0,5.65,-36.15,56.62,-6.51,-1.11,3.1,960.85,48.473,43.438183,-96.68978,1332.26,1421.489867974313,,0.0,38.709675,,14 / 21,76507,2018-06-18 23:02:04:655
1.3864,1.2634,12.0242,0.1894,1.1123,9.7447,1.1971,0.151,2.2795,0.9151,0.6216,0.2695,2.0,-16.0,5.65,-36.15,56.62,-6.51,-1.11,3.1,960.85,47.734,43.438183,-96.68978,1332.26,1421.489867974313,,0.0,38.709675,,14 / 21,77011,2018-06-18 23:02:05:159
1.3864,1.2634,12.0242,0.1894,1.1123,9.7447,1.1971,0.151,2.2795,0.9151,0.6216,0.2695,2.0,-16.0,5.65,-36.15,56.62,-6.51,-1.11,3.1,960.88,47.934,43.438183,-96.68978,1332.26,1421.489867974313,,0.0,38.709675,,14 / 21,77506,2018-06-18 23:02:05:654
1.3864,1.2634,12.0242,0.1894,1.1123,9.7447,1.1971,0.151,2.2795,0.9151,0.6216,0.2695,6.0,-16.0,5.65,-36.15,56.62,-6.51,-1.11,3.1,960.85,47.247,43.438183,-96.68978,1332.26,1421.489867974313,,0.0,38.709675,,14 / 21,78010,2018-06-18 23:02:06:158
1.3864,1.2634,12.0242,0.1894,1.1123,9.7447,1.1971,0.151,2.2795,0.9151,0.6216,0.2695,4.0,-16.0,5.65,-36.15,56.62,-6.51,-1.11,3.1,960.88,46.796,43.438183,-96.68978,1332.26,1421.489867974313,,0.0,38.709675,,14 / 21,78507,2018-06-18 23:02:06:655
1.3864,1.2634,12.0242,0.1894,1.1123,9.7447,1.1971,0.151,2.2795,0.9151,0.6216,0.2695,0.0,-16.0,5.65,-36.15,56.62,-6.51,-1.11,3.1,960.95,46.053,43.438168,-96.68979,1336.13,1421.489867974313,,0.9,38.709675,278.9,14 / 21,79010,2018-06-18 23:02:07:158
1.3864,1.2634,12.0242,0.1894,1.1123,9.7447,1.1971,0.151,2.2795,0.9151,0.6216,0.2695,0.0,-16.0,5.65,-36.15,56.62,-6.51,-1.11,3.1,960.95,47.064,43.438175,-96.68977,1342.9,1421.489867974313,,0.9,35.48387,278.9,15 / 21,79507,2018-06-18 23:02:07:655
-1.1204,2.7275,9.3273,-0.3489,3.0568,9.315,-0.7715,-0.3293,0.0123,0.0362,-0.0344,0.0061,36.0,-8.9,13.3,-35.5,24.0,-18.16,2.15,3.1,960.97,48.185,43.438175,-96.68977,1342.9,1421.489867974313,,0.9,35.48387,278.9,15 / 21,80007,2018-06-18 23:02:08:155
-0.9897,2.8686,9.6528,-0.5503,2.9818,9.3295,-0.4395,-0.1132,0.3233,-0.0581,0.139,0.017,9.0,2.3,25.2,-36.2,0.2,-17.7,3.38,3.1,960.96,69.871,43.438213,-96.68977,1343.23,1421.489867974313,,2.7,35.48387,278.9,15 / 21,80506,2018-06-18 23:02:08:654
-1.195,2.7577,9.9366,-0.7299,2.9227,9.3359,-0.4651,-0.165,0.6007,-0.0237,-0.0762,0.0232,0.0,3.0,22.75,-37.05,359.81,-17.33,4.47,3.1,960.94,46.726,43.438213,-96.68977,1343.23,1421.489867974313,,2.7,35.48387,278.9,15 / 21,81007,2018-06-18 23:02:09:155
-1.1786,2.7688,9.2042,-0.8082,2.9113,9.3331,-0.3705,-0.1425,-0.1289,0.0535,-0.0831,-3.0E-4,0.0,1.85,24.55,-38.1,2.09,-17.26,4.95,3.1,960.97,45.247,43.43821,-96.68976,1343.87,1421.489867974313,,1.8,38.709675,278.9,15 / 21,81506,2018-06-18 23:02:09:654
-0.9942,2.9091,9.3747,-0.9056,2.8942,9.3293,-0.0886,0.0148,0.0454,-0.0154,0.1246,0.0032,0.0,4.4,17.1,-39.75,359.76,-17.16,5.54,3.1,960.97,44.326,43.43821,-96.68976,1343.87,1421.489867974313,,1.8,38.709675,278.9,15 / 21,82011,2018-06-18 23:02:10:159
-1.0408,2.9043,9.7329,-0.9532,2.8623,9.3344,-0.0876,0.0419,0.3985,-0.0021,-0.1009,0.0128,0.0,5.85,16.05,-39.55,355.98,-16.96,5.83,3.1,960.95,43.745,43.43821,-96.68976,1343.87,1421.489867974313,,1.8,38.709675,278.9,15 / 21,82507,2018-06-18 23:02:10:655
-1.1098,2.8225,9.352,-0.9974,2.8409,9.3364,-0.1124,-0.0184,0.0156,0.0277,-0.0061,-0.0218,0.0,5.1,19.65,-39.1,358.44,-16.83,6.1,3.1,961.01,43.276,43.43821,-96.68976,1343.87,1421.489867974313,,1.8,38.709675,278.9,15 / 21,83009,2018-06-18 23:02:11:157
-1.159,2.8079,9.6621,-1.0387,2.8198,9.3383,-0.1203,-0.012,0.3238,-0.0019,-0.0296,-0.0242,0.0,5.0,20.95,-39.05,358.8,-16.71,6.35,3.1,960.85,45.733,43.43821,-96.68976,1343.87,1421.489867974313,,1.8,38.709675,278.9,15 / 21,83507,2018-06-18 23:02:11:655
-0.8058,2.5972,9.4629,-1.0281,2.7706,9.3542,0.2223,-0.1733,0.1087,-0.0541,0.1108,-0.0551,0.0,5.8,19.55,-39.5,356.78,-16.41,6.27,3.1,960.88,44.956,43.43821,-96.68976,1343.87,1421.489867974313,,1.8,38.709675,278.9,15 / 21,84011,2018-06-18 23:02:12:159
-0.9231,2.7604,9.6931,-0.9721,2.6755,9.3879,0.0489,0.0849,0.3052,0.0296,-0.077,-0.0802,0.0,6.6,19.65,-38.8,354.4,-15.83,5.91,3.1,961.0,45.263,43.43819,-96.689705,1341.29,NaN,,4.5,38.709675,83.2,16 / 21,84508,2018-06-18 23:02:12:656
-1.0287,2.7019,9.5918,-1.0062,2.6483,9.3919,-0.0225,0.0536,0.1998,-0.0091,0.1188,-0.1289,0.0,5.55,22.45,-40.1,356.96,-15.66,6.12,3.1,960.92,46.207,43.43819,-96.689705,1341.29,NaN,,4.5,38.709675,83.2,16 / 21,85011,2018-06-18 23:02:13:159
-1.2295,2.6514,9.4338,-1.0302,2.6233,9.3964,-0.1994,0.0281,0.0374,0.053,-0.1364,-0.1683,0.0,6.35,19.95,-39.3,356.71,-15.51,6.26,3.1,960.98,45.368,43.43819,-96.6897,1338.06,NaN,,4.5,38.709675,75.3,16 / 21,85506,2018-06-18 23:02:13:654
-1.4258,2.5504,9.6165,-1.1047,2.5838,9.3988,-0.3211,-0.0334,0.2176,0.0543,-0.1489,-0.1752,0.0,5.8,21.0,-39.8,357.61,-15.27,6.7,3.1,960.93,44.805,43.43819,-96.6897,1338.06,NaN,,4.5,38.709675,75.3,16 / 21,86011,2018-06-18 23:02:14:159
-1.4156,2.7688,9.7411,-1.2349,2.5417,9.394,-0.1807,0.2271,0.3471,-0.0346,0.0399,-0.1904,0.0,4.25,22.8,-40.15,2.19,-15.02,7.49,3.1,961.06,46.064,43.43819,-96.6897,1338.06,NaN,,4.5,38.709675,75.3,16 / 21,86511,2018-06-18 23:02:14:659
-1.7346,2.8923,9.3238,-1.3777,2.6094,9.3555,-0.3569,0.2829,-0.0317,0.0338,-0.0514,-0.1651,0.0,2.95,23.9,-41.0,5.05,-15.43,8.38,3.1,960.94,46.266,43.43819,-96.6897,1338.06,NaN,,4.5,38.709675,75.3,16 / 21,87011,2018-06-18 23:02:15:159
-1.771,2.8782,9.4141,-1.4661,2.6698,9.325,-0.3049,0.2084,0.0891,0.0421,-0.1664,-0.1302,0.0,3.2,23.6,-41.0,5.68,-15.79,8.93,3.1,961.01,46.013,43.43819,-96.6897,1338.06,NaN,,4.5,38.709675,75.3,17 / 21,87508,2018-06-18 23:02:15:656
-1.1522,2.6977,9.7048,-1.4532,2.6511,9.3325,0.301,0.0466,0.3723,-0.0389,0.0802,-0.1132,0.0,1.8,23.7,-40.7,7.23,-15.68,8.85,3.1,960.92,45.195,43.43819,-96.6897,1338.06,NaN,,4.5,38.709675,75.3,17 / 21,88011,2018-06-18 23:02:16:159
-1.4681,2.5501,9.4293,-1.4161,2.5941,9.3542,-0.0521,-0.044,0.0751,0.0383,-0.0141,-0.1241,0.0,1.25,23.8,-41.3,8.63,-15.33,8.61,3.1,960.99,45.676,43.438187,-96.68969,1337.74,NaN,,3.6,35.48387,102.2,16 / 20,88514,2018-06-18 23:02:16:662
-1.9561,2.9285,9.4528,-1.5041,2.6398,9.3276,-0.4521,0.2887,0.1253,0.0498,-0.1678,-0.0682,0.0,0.5,23.45,-41.45,9.5,-15.61,9.16,3.1,960.96,46.528,43.438187,-96.68969,1337.74,NaN,,3.6,35.48387,102.2,16 / 20,89011,2018-06-18 23:02:17:159
-1.3285,2.7414,9.6238,-1.4722,2.6619,9.3264,0.1437,0.0795,0.2974,-0.0376,0.0469,-0.033,0.0,-0.35,23.75,-41.15,10.62,-15.74,8.97,3.1,960.88,45.976,43.438175,-96.68968,1336.45,NaN,,3.6,35.48387,112.4,16 / 21,89507,2018-06-18 23:02:17:655
-2.0331,3.5288,9.1202,-1.6282,2.9285,9.2199,-0.4049,0.6003,-0.0997,0.0213,0.0192,-3.0E-4,0.0,-1.15,26.2,-40.9,12.43,-17.37,10.01,3.1,960.94,45.137,43.438175,-96.68968,1336.45,NaN,,3.6,35.48387,112.4,16 / 21,90007,2018-06-18 23:02:18:155
-2.0331,3.5288,9.1202,-1.6282,2.9285,9.2199,-0.4049,0.6003,-0.0997,0.0213,0.0192,-3.0E-4,0.0,-1.15,26.2,-40.9,12.43,-17.37,10.01,3.1,960.94,45.514,43.438164,-96.68968,1338.39,NaN,,3.6,35.48387,122.8,16 / 21,90507,2018-06-18 23:02:18:655
-2.0331,3.5288,9.1202,-1.6282,2.9285,9.2199,-0.4049,0.6003,-0.0997,0.0213,0.0192,-3.0E-4,0.0,-1.15,26.2,-40.9,12.43,-17.37,10.01,3.1,960.96,45.171,43.438164,-96.68968,1338.39,NaN,,3.6,35.48387,122.8,16 / 21,91011,2018-06-18 23:02:19:159
-2.0331,3.5288,9.1202,-1.6282,2.9285,9.2199,-0.4049,0.6003,-0.0997,0.0213,0.0192,-3.0E-4,0.0,-1.15,26.2,-40.9,12.43,-17.37,10.01,3.1,960.89,45.846,43.438152,-96.689674,1336.45,NaN,,3.6,35.48387,135.9,17 / 21,91506,2018-06-18 23:02:19:654
-2.0331,3.5288,9.1202,-1.6282,2.9285,9.2199,-0.4049,0.6003,-0.0997,0.0213,0.0192,-3.0E-4,0.0,-1.15,26.2,-40.9,12.43,-17.37,10.01,3.1,960.99,44.483,43.438152,-96.689674,1336.45,NaN,,3.6,35.48387,135.9,17 / 21,92011,2018-06-18 23:02:20:159
-2.0331,3.5288,9.1202,-1.6282,2.9285,9.2199,-0.4049,0.6003,-0.0997,0.0213,0.0192,-3.0E-4,0.0,-1.15,26.2,-40.9,12.43,-17.37,10.01,3.1,961.0,45.965,43.438145,-96.689674,1338.39,NaN,,3.6,35.48387,146.2,17 / 21,92508,2018-06-18 23:02:20:656
-2.0331,3.5288,9.1202,-1.6282,2.9285,9.2199,-0.4049,0.6003,-0.0997,0.0213,0.0192,-3.0E-4,0.0,-1.15,26.2,-40.9,12.43,-17.37,10.01,3.1,960.88,45.239,43.438145,-96.689674,1338.39,NaN,,3.6,35.48387,146.2,17 / 21,93011,2018-06-18 23:02:21:159
-2.0331,3.5288,9.1202,-1.6282,2.9285,9.2199,-0.4049,0.6003,-0.0997,0.0213,0.0192,-3.0E-4,0.0,-1.15,26.2,-40.9,12.43,-17.37,10.01,3.1,960.89,45.436,43.438145,-96.689674,1338.39,NaN,,3.6,35.48387,146.2,17 / 21,93507,2018-06-18 23:02:21:655
-2.0331,3.5288,9.1202,-1.6282,2.9285,9.2199,-0.4049,0.6003,-0.0997,0.0213,0.0192,-3.0E-4,0.0,-1.15,26.2,-40.9,12.43,-17.37,10.01,3.1,960.93,44.563,43.438145,-96.689674,1338.39,NaN,,3.6,35.48387,146.2,17 / 21,94011,2018-06-18 23:02:22:159
-2.0331,3.5288,9.1202,-1.6282,2.9285,9.2199,-0.4049,0.6003,-0.0997,0.0213,0.0192,-3.0E-4,0.0,-1.15,26.2,-40.9,12.43,-17.37,10.01,3.1,960.94,45.904,43.438168,-96.68968,1337.74,NaN,,3.6,32.258064,357.2,16 / 20,94507,2018-06-18 23:02:22:655
-2.0331,3.5288,9.1202,-1.6282,2.9285,9.2199,-0.4049,0.6003,-0.0997,0.0213,0.0192,-3.0E-4,0.0,-1.15,26.2,-40.9,12.43,-17.37,10.01,3.1,961.03,46.262,43.438168,-96.68968,1337.74,NaN,,3.6,32.258064,357.2,16 / 20,95011,2018-06-18 23:02:23:159
-2.0331,3.5288,9.1202,-1.6282,2.9285,9.2199,-0.4049,0.6003,-0.0997,0.0213,0.0192,-3.0E-4,0.0,-1.15,26.2,-40.9,12.43,-17.37,10.01,3.1,961.03,46.498,43.438187,-96.68968,1340.32,NaN,,3.6,32.258064,3.5,16 / 21,95507,2018-06-18 23:02:23:655
-2.0331,3.5288,9.1202,-1.6282,2.9285,9.2199,-0.4049,0.6003,-0.0997,0.0213,0.0192,-3.0E-4,0.0,-1.15,26.2,-40.9,12.43,-17.37,10.01,3.1,960.98,45.749,43.438187,-96.68968,1340.32,NaN,,3.6,32.258064,3.5,16 / 21,96011,2018-06-18 23:02:24:159
-2.0331,3.5288,9.1202,-1.6282,2.9285,9.2199,-0.4049,0.6003,-0.0997,0.0213,0.0192,-3.0E-4,0.0,-1.15,26.2,-40.9,12.43,-17.37,10.01,3.1,961.04,46.779,43.43821,-96.68968,1336.13,NaN,,4.5,32.258064,15.9,16 / 21,96507,2018-06-18 23:02:24:655
-2.0331,3.5288,9.1202,-1.6282,2.9285,9.2199,-0.4049,0.6003,-0.0997,0.0213,0.0192,-3.0E-4,0.0,-1.15,26.2,-40.9,12.43,-17.37,10.01,3.1,960.9,50.522,43.43821,-96.68968,1336.13,NaN,,4.5,32.258064,15.9,16 / 21,97012,2018-06-18 23:02:25:160
-2.0331,3.5288,9.1202,-1.6282,2.9285,9.2199,-0.4049,0.6003,-0.0997,0.0213,0.0192,-3.0E-4,0.0,-1.15,26.2,-40.9,12.43,-17.37,10.01,3.1,960.99,47.112,43.438236,-96.68967,1334.84,NaN,,8.1,32.258064,24.1,16 / 21,97507,2018-06-18 23:02:25:655
-2.0331,3.5288,9.1202,-1.6282,2.9285,9.2199,-0.4049,0.6003,-0.0997,0.0213,0.0192,-3.0E-4,0.0,-1.15,26.2,-40.9,12.43,-17.37,10.01,3.1,960.94,49.41,43.438236,-96.68967,1334.84,NaN,,8.1,32.258064,24.1,16 / 21,98011,2018-06-18 23:02:26:159
-2.0331,3.5288,9.1202,-1.6282,2.9285,9.2199,-0.4049,0.6003,-0.0997,0.0213,0.0192,-3.0E-4,0.0,-1.15,26.2,-40.9,12.43,-17.37,10.01,3.1,960.96,47.548,43.438263,-96.68966,1336.45,NaN,,9.9,32.258064,26.5,16 / 21,98507,2018-06-18 23:02:26:655
-2.0331,3.5288,9.1202,-1.6282,2.9285,9.2199,-0.4049,0.6003,-0.0997,0.0213,0.0192,-3.0E-4,0.0,-1.15,26.2,-40.9,12.43,-17.37,10.01,3.1,960.96,52.298,43.438263,-96.68966,1336.45,NaN,,9.9,32.258064,26.5,16 / 21,99010,2018-06-18 23:02:27:158
-2.0331,3.5288,9.1202,-1.6282,2.9285,9.2199,-0.4049,0.6003,-0.0997,0.0213,0.0192,-3.0E-4,0.0,-1.15,26.2,-40.9,12.43,-17.37,10.01,3.1,960.99,45.545,43.4383,-96.68964,1334.84,NaN,,10.8,32.258064,21.0,16 / 20,99507,2018-06-18 23:02:27:655
-2.0331,3.5288,9.1202,-1.6282,2.9285,9.2199,-0.4049,0.6003,-0.0997,0.0213,0.0192,-3.0E-4,0.0,-1.15,26.2,-40.9,12.43,-17.37,10.01,3.1,961.05,52.736,43.4383,-96.68964,1334.84,NaN,,10.8,32.258064,21.0,16 / 20,100010,2018-06-18 23:02:28:158
-2.0331,3.5288,9.1202,-1.6282,2.9285,9.2199,-0.4049,0.6003,-0.0997,0.0213,0.0192,-3.0E-4,0.0,-1.15,26.2,-40.9,12.43,-17.37,10.01,3.1,961.04,46.016,43.438335,-96.68964,1335.81,NaN,,11.7,32.258064,12.2,15 / 20,100509,2018-06-18 23:02:28:657
-2.0331,3.5288,9.1202,-1.6282,2.9285,9.2199,-0.4049,0.6003,-0.0997,0.0213,0.0192,-3.0E-4,0.0,-1.15,26.2,-40.9,12.43,-17.37,10.01,3.1,960.98,50.332,43.438335,-96.68964,1335.81,NaN,,11.7,32.258064,12.2,15 / 20,101011,2018-06-18 23:02:29:159
-2.0331,3.5288,9.1202,-1.6282,2.9285,9.2199,-0.4049,0.6003,-0.0997,0.0213,0.0192,-3.0E-4,0.0,-1.15,26.2,-40.9,12.43,-17.37,10.01,3.1,961.04,47.17,43.43837,-96.68964,1336.45,NaN,,11.7,32.258064,4.0,15 / 21,101507,2018-06-18 23:02:29:655
-2.0331,3.5288,9.1202,-1.6282,2.9285,9.2199,-0.4049,0.6003,-0.0997,0.0213,0.0192,-3.0E-4,0.0,-1.15,26.2,-40.9,12.43,-17.37,10.01,3.1,960.92,50.662,43.43837,-96.68964,1336.45,NaN,,11.7,32.258064,4.0,15 / 21,102011,2018-06-18 23:02:30:159
-2.0331,3.5288,9.1202,-1.6282,2.9285,9.2199,-0.4049,0.6003,-0.0997,0.0213,0.0192,-3.0E-4,0.0,-1.15,26.2,-40.9,12.43,-17.37,10.01,3.1,961.02,48.432,43.438404,-96.68964,1336.13,NaN,,11.7,32.258064,3.2,15 / 21,102508,2018-06-18 23:02:30:656
-2.0331,3.5288,9.1202,-1.6282,2.9285,9.2199,-0.4049,0.6003,-0.0997,0.0213,0.0192,-3.0E-4,0.0,-1.15,26.2,-40.9,12.43,-17.37,10.01,3.1,960.96,49.711,43.438404,-96.68964,1336.13,NaN,,11.7,32.258064,3.2,15 / 21,103009,2018-06-18 23:02:31:157
-2.0331,3.5288,9.1202,-1.6282,2.9285,9.2199,-0.4049,0.6003,-0.0997,0.0213,0.0192,-3.0E-4,0.0,-1.15,26.2,-40.9,12.43,-17.37,10.01,3.1,960.97,47.583,43.438435,-96.68963,1338.39,NaN,,11.7,32.258064,7.6,15 / 21,103507,2018-06-18 23:02:31:655
-0.4133,3.8715,9.1416,-0.0936,4.1509,8.8879,-0.3344,-0.2537,-0.0596,0.0788,-0.2256,-0.3989,0.0,-15.3,15.9,-39.1,26.48,-25.03,0.6,3.1,960.97,48.19,43.438435,-96.68963,1338.39,NaN,,11.7,32.258064,7.6,15 / 21,104011,2018-06-18 23:02:32:159
0.0054,4.3369,9.3036,-0.2018,4.2003,8.8629,0.1873,0.0066,0.4907,0.0296,-0.1462,-0.4298,0.0,-15.95,13.65,-38.75,29.81,-25.28,1.06,3.1,960.96,48.076,43.438473,-96.68962,1340.97,NaN,,11.7,32.258064,12.6,15 / 21,104509,2018-06-18 23:02:32:657
-0.1344,4.1349,9.1244,-0.2073,4.2039,8.8611,0.0729,-0.069,0.2633,0.0413,-0.1731,-0.4301,0.0,-15.2,11.35,-38.05,31.36,-25.37,1.34,3.1,960.96,50.874,43.438473,-96.68962,1340.97,NaN,,11.7,32.258064,12.6,15 / 21,105009,2018-06-18 23:02:33:157
-0.8134,4.2474,9.2431,-1.2713,4.1461,8.7993,0.4579,0.1013,0.4438,0.0181,-0.0703,-0.3148,0.0,-14.4,8.15,-36.95,40.78,-25.19,7.95,3.1,960.96,52.428,43.4385,-96.68961,1341.94,1423.178547438822,,11.7,32.258064,17.4,16 / 21,105508,2018-06-18 23:02:33:656
-1.969,3.8296,9.059,-1.4491,3.9885,8.8447,-0.5199,-0.1588,0.2144,0.02,0.0336,-0.1491,0.0,-13.5,5.15,-35.55,43.96,-24.16,8.82,3.1,960.99,53.656,43.4385,-96.68961,1341.94,1423.178547438822,,11.7,32.258064,17.4,16 / 21,106011,2018-06-18 23:02:34:159
-1.8244,3.6656,9.343,-1.6033,3.8808,8.8659,-0.0482,-4.0E-4,0.297,0.0269,-0.0192,-0.0421,0.0,-12.6,3.2,-35.15,50.89,-23.3,10.25,3.1,960.99,52.262,43.438526,-96.68958,1340.97,1423.178547438822,,12.6,32.258064,28.7,16 / 21,106508,2018-06-18 23:02:34:656
-1.6735,3.8572,9.0415,-1.6791,3.7344,8.9146,-0.423,-0.3028,0.4347,-0.032,-0.0658,-0.0075,0.0,-11.3,2.1,-34.5,50.84,-22.53,10.56,3.1,960.96,51.834,43.438526,-96.68958,1340.97,1423.178547438822,,12.6,32.258064,28.7,16 / 21,107010,2018-06-18 23:02:35:158
-2.2142,3.3566,9.1924,-1.8009,3.6458,8.9274,-0.4,-0.2864,0.2664,-0.0112,0.0341,0.0178,0.0,-10.45,2.1,-35.15,49.85,-22.08,11.28,3.1,961.05,52.923,43.438538,-96.68953,1342.26,1423.178547438822,,13.5,32.258064,54.9,16 / 21,107509,2018-06-18 23:02:35:657
-1.3677,3.5979,10.3188,-1.8665,3.4562,8.9891,-1.1531,-1.1116,-1.3774,-0.0868,0.0591,-0.1113,0.0,-12.6,6.55,-35.55,48.02,-20.63,11.73,3.1,961.02,56.038,43.438538,-96.68953,1342.26,1423.178547438822,,13.5,32.258064,54.9,16 / 21,108011,2018-06-18 23:02:36:159
-1.9813,3.0355,9.0259,-1.874,3.3219,9.0381,0.0072,0.1771,0.1976,0.021,0.0565,0.0407,0.0,-11.35,4.0,-35.55,50.28,-19.79,11.58,3.1,960.9,56.316,43.43851,-96.68936,1339.03,1423.178547438822,,22.5,35.48387,78.9,15 / 21,108507,2018-06-18 23:02:36:655
-1.5276,3.3936,9.961,-1.8949,3.3189,9.0349,-0.335,-0.3943,0.1597,-0.0336,0.0506,0.0391,0.0,-10.35,2.45,-34.7,53.03,-19.77,11.85,3.1,960.96,52.461,43.43851,-96.68936,1339.03,1423.178547438822,,22.5,35.48387,78.9,15 / 21,109009,2018-06-18 23:02:37:157
-1.8531,2.9345,8.9759,-2.2127,2.6983,9.1683,0.3596,0.2362,-0.1923,0.0959,-0.0421,0.0205,0.0,-11.05,3.35,-34.85,58.61,-15.97,13.57,3.1,960.99,55.26,43.438515,-96.68926,1340.0,1423.178547438822,,26.1,35.48387,82.1,15 / 21,109508,2018-06-18 23:02:37:656
-1.8124,3.0421,9.3846,-2.0871,2.7909,9.1701,0.2747,0.2512,0.2145,-0.0048,0.0522,0.0248,0.0,-10.75,3.15,-35.25,57.26,-16.53,12.82,3.1,960.91,55.027,43.438515,-96.68926,1340.0,1423.178547438822,,26.1,35.48387,82.1,15 / 21,110011,2018-06-18 23:02:38:159
-1.6367,3.0568,9.6623,-1.9762,2.8109,9.1885,0.3395,0.2459,0.4738,-0.0075,0.1047,0.0125,0.0,-10.65,3.45,-34.5,56.75,-16.65,12.14,3.1,960.97,53.587,43.4385,-96.689156,1339.35,1423.178547438822,,29.7,32.258064,89.5,14 / 20,110506,2018-06-18 23:02:38:654
-1.7517,2.8775,9.4606,-1.8904,2.8552,9.1928,0.0895,-0.024,0.2787,-0.0154,0.0123,0.021,0.0,-10.8,3.85,-35.25,53.56,-16.92,11.62,3.1,960.94,54.883,43.4385,-96.689156,1339.35,1423.178547438822,,29.7,32.258064,89.5,14 / 20,111012,2018-06-18 23:02:39:160
-1.7057,2.9468,9.4802,-1.8454,2.8269,9.2108,0.1757,0.1051,0.3157,-0.0165,-0.021,0.0258,0.0,-10.75,3.55,-35.15,53.49,-16.73,11.35,3.1,960.88,54.095,43.438496,-96.68904,1338.39,1423.178547438822,,32.4,32.258064,90.9,14 / 21,111508,2018-06-18 23:02:39:656
-1.7925,2.849,9.4349,-1.8165,2.7921,9.2271,-0.0241,-0.1416,0.2485,0.016,-0.0096,0.0184,0.0,-11.95,5.55,-36.2,51.04,-16.54,11.14,3.1,960.86,53.897,43.438496,-96.68904,1338.39,1423.178547438822,,32.4,32.258064,90.9,14 / 21,112011,2018-06-18 23:02:40:159
-1.8796,2.4407,9.3017,-1.741,2.7148,9.2647,-0.0546,-0.2629,0.0602,0.0186,-0.1116,0.0157,0.0,-11.45,4.0,-34.8,53.56,-16.26,10.94,3.1,960.94,55.603,43.43849,-96.68892,1339.35,1423.178547438822,,34.2,32.258064,91.4,14 / 21,112508,2018-06-18 23:02:40:656
-1.5901,2.5088,9.3521,-1.7062,2.6344,9.2943,-0.15,-0.0154,0.0132,0.0368,-0.1031,0.0274,0.0,-11.5,4.55,-35.35,51.72,-15.58,10.4,3.1,960.79,54.993,43.43849,-96.68892,1339.35,1423.178547438822,,34.2,32.258064,91.4,14 / 21,113011,2018-06-18 23:02:41:159
-1.6095,2.4907,9.309,-1.6686,2.6604,9.2937,-0.0346,-0.1157,0.2476,-0.0487,-0.0479,0.029,0.0,-11.25,5.25,-36.2,51.05,-15.74,10.18,3.1,960.92,55.42,43.43851,-96.6888,1337.74,1423.178547438822,,35.1,32.258064,90.8,14 / 21,113506,2018-06-18 23:02:41:654
-1.6244,2.5305,9.7667,-1.6086,2.6282,9.3133,0.1732,-0.0223,0.1594,-0.017,-0.0407,0.0285,0.0,-11.9,6.45,-36.25,50.6,-15.48,9.73,3.1,960.92,53.32,43.43851,-96.6888,1337.74,1423.178547438822,,35.1,32.258064,90.8,14 / 21,114010,2018-06-18 23:02:42:158
-1.1635,2.6986,10.1149,-0.6462,2.5847,9.4412,-0.5173,0.1139,0.6737,-0.0152,0.0884,0.0288,0.0,-12.8,7.9,-36.75,42.0,-15.28,3.92,3.1,960.98,53.785,43.43851,-96.6888,1337.74,1423.178547438822,,35.1,32.258064,90.8,14 / 21,114507,2018-06-18 23:02:42:655
-1.555,2.3637,9.1484,-2.2857,2.1696,9.29,0.7308,0.1941,-0.1416,0.0767,0.2,-0.0053,0.0,-12.05,6.8,-36.2,55.49,-12.78,13.82,3.1,961.0,54.393,43.438507,-96.688675,1338.71,1423.178547438822,,36.0,32.258064,90.1,14 / 21,115009,2018-06-18 23:02:43:157
-1.1055,2.5001,9.8759,-1.9027,2.2137,9.3656,0.7972,0.2864,0.5103,0.0232,-0.0133,0.0029,0.0,-12.4,6.1,-36.6,54.81,-13.04,11.48,3.1,960.96,54.047,43.438503,-96.68855,1337.74,1423.178547438822,,36.0,32.258064,89.5,14 / 21,115507,2018-06-18 23:02:43:655
-1.3294,2.4811,9.8425,-1.618,2.2813,9.4028,0.5579,0.1439,0.3847,-0.0216,0.0144,0.0091,0.0,-11.75,4.05,-34.75,57.22,-13.45,9.76,3.1,960.95,54.707,43.438503,-96.68855,1337.74,1423.178547438822,,36.0,32.258064,89.5,14 / 21,116011,2018-06-18 23:02:44:159
-1.1258,2.3293,9.7028,-1.3177,2.3295,9.4377,0.1666,0.0,-0.4744,0.0128,-0.0605,0.0069,0.0,-12.2,4.3,-36.35,54.66,-13.74,7.95,3.1,960.83,54.985,43.438503,-96.68843,1337.1,1423.178547438822,,36.0,32.258064,90.5,14 / 21,116507,2018-06-18 23:02:44:655
-0.8978,2.3079,9.669,-1.2283,2.3034,9.4561,0.1819,0.2459,0.1922,0.0072,-0.0538,0.0061,0.0,-12.4,4.75,-36.4,54.32,-13.72,7.62,3.1,960.93,55.345,43.438503,-96.68843,1337.1,1423.178547438822,,36.0,32.258064,90.5,14 / 21,117010,2018-06-18 23:02:45:158
-0.7249,1.5834,9.7537,-1.0451,2.1573,9.5126,0.3366,-0.5796,0.2443,-0.0644,0.1489,0.0248,0.0,-12.3,5.0,-36.5,52.09,-12.83,6.61,3.1,960.99,56.277,43.438488,-96.68831,1337.42,1423.178547438822,,36.0,32.258064,90.2,14 / 21,117507,2018-06-18 23:02:45:655
-0.7362,1.7102,9.9997,-0.9628,2.0813,9.5382,0.1683,-0.4792,0.4784,0.0328,-0.0344,0.0099,0.0,-13.65,7.85,-37.1,49.02,-12.25,5.76,3.1,960.99,54.921,43.438488,-96.68831,1337.42,1423.178547438822,,36.0,32.258064,90.2,14 / 21,118011,2018-06-18 23:02:46:159
-0.4907,1.3584,9.3442,-0.2658,1.5572,9.6819,-0.2248,-0.1988,-0.3377,0.0344,0.0056,0.0123,0.0,-13.35,7.45,-37.05,47.51,-10.68,2.9,3.1,960.96,56.892,43.438488,-96.68819,1338.39,1423.178547438822,,34.2,32.258064,90.3,14 / 21,118506,2018-06-18 23:02:46:654
-0.6446,1.1706,10.0166,-0.4802,1.6675,9.6552,-0.1644,-0.497,0.3613,0.0399,0.0109,0.0115,0.0,-12.65,4.85,-35.65,53.5,-9.79,2.85,3.1,961.1,56.512,43.438488,-96.68819,1338.39,1423.178547438822,,34.2,32.258064,90.3,14 / 21,119010,2018-06-18 23:02:47:158
-0.6446,1.1706,10.0166,-0.4802,1.6675,9.6552,-0.1644,-0.497,0.3613,0.0399,0.0109,0.0115,0.0,-12.65,4.85,-35.65,53.5,-9.79,2.85,3.1,961.05,54.695,43.438477,-96.68808,1338.71,1423.178547438822,,31.5,32.258064,90.6,14 / 21,119507,2018-06-18 23:02:47:655
0.043,1.0323,10.3462,-0.3054,0.7294,9.778,0.1459,0.7242,1.58,-0.0376,0.0991,-5.0E-4,0.0,-12.55,3.55,-37.4,64.85,-3.99,1.46,3.1,961.0,55.638,43.438477,-96.68808,1338.71,1423.178547438822,,31.5,32.258064,90.6,14 / 21,120011,2018-06-18 23:02:48:159
-0.5546,0.9106,9.772,-0.3049,0.8737,9.7661,-0.103,0.3654,0.5053,-0.069,-0.0743,0.0152,0.0,-12.4,4.75,-38.3,57.71,-5.11,1.79,3.1,961.03,56.109,43.438477,-96.68799,1338.06,1423.178547438822,,27.0,32.258064,90.8,14 / 21,120506,2018-06-18 23:02:48:654
-0.6369,0.8535,10.1197,-0.3009,0.9406,9.7602,0.1534,0.232,0.3365,0.0056,0.0181,0.0077,0.0,-12.05,3.8,-38.0,60.05,-5.42,1.64,3.1,961.0,51.959,43.438477,-96.68799,1338.06,1423.178547438822,,27.0,32.258064,90.8,14 / 21,121011,2018-06-18 23:02:49:159
-0.1763,0.9754,10.7469,-0.3268,1.0052,9.7528,-0.1021,-0.254,0.332,-0.0213,-0.0599,0.016,0.0,-12.05,4.25,-38.1,59.48,-5.81,1.83,3.1,960.94,53.253,43.438465,-96.68792,1338.39,1423.178547438822,,21.6,32.258064,91.2,15 / 21,121508,2018-06-18 23:02:49:656
-0.3591,1.0932,10.2778,-0.3395,1.0857,9.7437,0.2805,-0.0584,0.6178,0.0202,0.0253,0.0123,0.0,-12.2,4.2,-38.05,58.59,-6.35,2.0,3.1,960.94,50.637,43.438465,-96.68792,1338.39,1423.178547438822,,21.6,32.258064,91.2,15 / 21,122010,2018-06-18 23:02:50:158
-0.3182,1.1037,9.7414,-0.3527,1.1592,9.7349,0.0202,-0.0683,-0.0469,0.0232,-0.0301,0.0104,0.0,-11.85,3.4,-37.75,61.03,-6.79,2.11,3.1,961.06,47.423,43.438457,-96.687874,1338.71,1423.178547438822,,16.2,32.258064,91.1,15 / 21,122507,2018-06-18 23:02:50:655
-0.2615,1.5773,10.1468,-0.3934,1.2336,9.7241,-0.4354,0.1537,0.1973,-0.013,-0.0519,0.0229,0.0,-11.6,5.4,-35.4,55.26,-7.22,2.32,3.1,960.97,48.45,43.438457,-96.687874,1338.71,1423.178547438822,,16.2,32.258064,91.1,15 / 21,123010,2018-06-18 23:02:51:158
-0.2615,1.5773,10.1468,-0.3934,1.2336,9.7241,-0.4354,0.1537,0.1973,-0.013,-0.0519,0.0229,0.0,-11.6,5.4,-35.4,55.26,-7.22,2.32,3.1,961.11,45.974,43.438457,-96.68784,1339.03,1423.178547438822,,9.9,32.258064,93.3,16 / 21,123507,2018-06-18 23:02:51:655
-1.6087,2.8468,9.3759,-0.548,2.7981,9.3864,-1.0607,0.0486,-0.0105,0.0208,0.0378,0.0053,0.0,-11.1,2.7,-36.55,44.8,-16.57,3.34,3.1,961.06,51.878,43.438457,-96.68784,1339.03,1423.178547438822,,9.9,32.258064,93.3,16 / 21,124011,2018-06-18 23:02:52:159
-1.3132,2.9333,9.281,-0.8288,2.862,9.3464,-0.4643,0.1223,-0.0385,0.0397,0.0581,-0.0381,0.0,-10.65,3.7,-35.95,45.27,-16.96,5.07,3.1,961.0,41.758,43.438457,-96.68782,1338.39,1423.178547438822,,5.4,32.258064,98.0,15 / 21,124507,2018-06-18 23:02:52:655
-1.2017,3.0809,9.5564,-0.9348,2.9282,9.3159,-0.2864,0.21,0.1473,0.0336,-0.0213,-0.1041,0.0,-10.8,3.3,-35.55,47.7,-17.37,5.73,3.1,961.04,42.7,43.438457,-96.68782,1338.39,1423.178547438822,,5.4,32.258064,98.0,15 / 21,125011,2018-06-18 23:02:53:159
-1.1185,3.3141,9.3669,-0.9941,3.0433,9.2728,-0.1244,0.2708,0.0942,0.0581,-0.0671,-0.192,0.0,-10.6,3.7,-34.95,45.86,-18.07,6.12,3.1,960.98,45.185,43.438457,-96.687805,1340.32,1423.178547438822,,5.4,32.258064,96.3,15 / 21,125506,2018-06-18 23:02:53:654
-1.1319,3.4828,9.3261,-1.0397,3.1466,9.2333,-0.0922,0.3362,0.0928,0.0282,-0.0538,-0.2533,0.0,-10.8,4.15,-36.05,45.17,-18.71,6.42,3.1,961.07,47.155,43.438457,-96.687805,1340.32,1423.178547438822,,5.4,32.258064,96.3,15 / 21,126012,2018-06-18 23:02:54:160
-0.7314,3.9138,9.4274,-1.0352,3.3952,9.1452,0.3039,0.5185,0.2822,0.0418,-0.1316,-0.3073,0.0,-7.85,0.3,-34.6,45.39,-20.25,6.46,3.1,961.06,46.725,43.43844,-96.68778,1339.35,1423.178547438822,,7.2,32.258064,107.3,15 / 21,126507,2018-06-18 23:02:54:655
-0.9546,4.1079,9.0794,-1.1605,3.6005,9.0512,0.206,0.5074,0.0281,0.1593,-0.036,-0.3622,0.0,-7.35,1.4,-33.85,40.96,-21.53,7.31,3.1,961.06,52.093,43.43844,-96.68778,1339.35,NaN,,7.2,32.258064,107.3,15 / 21,127011,2018-06-18 23:02:55:159
-0.9632,4.339,9.5602,-1.3964,3.793,8.9385,0.4332,0.5461,0.6217,0.0794,-0.135,-0.3649,0.0,-3.7,-1.25,-32.4,38.79,-22.75,8.88,3.1,961.03,51.302,43.438427,-96.68776,1337.42,NaN,,8.1,32.258064,109.8,15 / 21,127507,2018-06-18 23:02:55:655
-0.4555,4.0304,8.9412,-1.2578,3.8744,8.9243,0.8023,0.156,0.0169,-0.0224,-0.1678,-0.3856,0.0,-0.6,-2.3,-32.5,27.19,-23.26,8.02,3.1,961.11,51.161,43.438427,-96.68776,1337.42,NaN,,8.1,32.258064,109.8,15 / 21,128011,2018-06-18 23:02:56:159
-0.4555,4.0304,8.9412,-1.2578,3.8744,8.9243,0.8023,0.156,0.0169,-0.0224,-0.1678,-0.3856,0.0,-0.6,-2.3,-32.5,27.19,-23.26,8.02,3.1,961.11,53.533,43.438427,-96.68776,1337.42,NaN,,8.1,32.258064,109.8,15 / 21,128507,2018-06-18 23:02:56:655
-0.8863,4.447,9.363,-0.563,4.1766,8.8584,-0.4612,0.0398,0.479,0.0144,-0.0724,-0.2336,0.0,4.45,-2.05,-31.0,349.51,-25.18,3.15,3.1,960.88,52.599,43.438416,-96.68773,1338.06,NaN,,10.8,32.258064,117.8,15 / 21,129009,2018-06-18 23:02:57:157
-1.5879,3.9919,8.9072,-0.8564,4.1793,8.8337,-0.3645,0.2879,0.4781,0.0405,-0.0791,-0.1667,0.0,4.0,2.95,-31.7,356.89,-25.22,5.54,3.1,961.03,52.825,43.438393,-96.68771,1336.13,NaN,,10.8,32.258064,140.2,15 / 20,129506,2018-06-18 23:02:57:654
-2.3875,3.4732,8.8566,-1.2554,4.0082,8.8653,-1.2301,-0.3055,0.5471,0.0461,0.0266,-0.0618,0.0,5.1,2.85,-32.8,358.87,-24.12,8.06,3.1,960.94,53.792,43.438393,-96.68771,1336.13,NaN,,10.8,32.258064,140.2,15 / 20,130011,2018-06-18 23:02:58:159
-1.9591,3.4921,9.7422,-1.464,3.8253,8.914,-0.4781,-0.3552,0.8405,0.0655,0.0322,-0.004,0.0,6.3,0.95,-32.15,356.63,-23.12,9.2,3.1,961.02,53.245,43.43833,-96.68771,1336.13,NaN,,14.4,32.258064,173.7,16 / 21,130507,2018-06-18 23:02:58:655
-1.8365,3.4716,8.8882,-1.5684,3.6599,8.9655,-0.4104,-0.148,0.3423,0.0136,-0.0623,-0.0056,0.0,7.0,0.15,-30.75,352.21,-22.07,9.78,3.1,961.02,55.008,43.43833,-96.68771,1336.13,NaN,,14.4,32.258064,173.7,16 / 21,131010,2018-06-18 23:02:59:158
-1.9359,3.0495,9.4497,-1.6882,3.5542,8.9863,-0.2367,-0.4778,0.4549,0.0096,0.017,0.0258,0.0,6.55,1.3,-31.25,354.69,-21.24,10.64,3.1,960.9,54.512,43.43828,-96.687706,1336.77,NaN,,18.0,32.258064,173.9,16 / 21,131509,2018-06-18 23:02:59:657
-2.4058,3.1277,9.1415,-1.7749,3.4357,9.0156,-0.3091,-0.0886,0.2365,0.028,-0.0439,0.0357,0.0,6.9,0.3,-32.0,356.57,-20.5,11.14,3.1,961.08,53.755,43.43828,-96.687706,1336.77,NaN,,18.0,32.258064,173.9,16 / 21,132011,2018-06-18 23:03:00:159
-1.8383,3.4472,9.0261,-1.7762,3.4165,9.0226,-0.131,-0.2618,0.4103,-0.0442,-0.0567,0.016,0.0,6.55,0.95,-32.5,1.7,-20.37,11.26,3.1,961.0,54.33,43.43828,-96.687706,1336.77,NaN,,18.0,32.258064,173.9,16 / 21,132506,2018-06-18 23:03:00:654
-1.8987,3.6172,9.1792,-1.0739,3.8704,8.9499,-0.8248,-0.2531,0.2293,0.0352,0.0309,0.0099,0.0,5.75,1.05,-31.85,351.12,-23.24,6.84,3.1,961.06,54.838,43.438206,-96.68771,1339.35,NaN,,25.2,32.258064,180.4,16 / 21,133010,2018-06-18 23:03:01:158
-1.7332,3.3957,9.0857,-1.3009,3.706,8.9893,-0.4323,-0.3103,0.0964,-0.02,0.0541,0.0112,0.0,5.4,2.65,-31.35,358.01,-22.2,8.23,3.1,961.08,55.659,43.438137,-96.687706,1339.35,NaN,,26.1,35.48387,177.9,16 / 21,133508,2018-06-18 23:03:01:656
-1.7747,3.0312,9.4856,-1.4087,3.427,9.0833,-0.366,-0.3958,0.4024,-0.0056,-0.012,0.0157,0.0,6.35,-0.2,-32.25,354.85,-20.45,8.82,3.1,960.99,55.581,43.438137,-96.687706,1339.35,NaN,,26.1,35.48387,177.9,16 / 21,134012,2018-06-18 23:03:02:160
-1.9663,3.1321,9.3319,-1.5583,3.3387,9.0918,-0.4081,-0.2066,0.2401,0.0029,0.0109,0.0245,0.0,6.35,-0.3,-32.1,357.37,-19.9,9.73,3.1,961.08,55.198,43.438065,-96.687706,1340.32,NaN,,27.0,35.48387,178.0,16 / 21,134507,2018-06-18 23:03:02:655
-1.4638,3.2144,9.3895,-1.5268,3.2924,9.1139,0.063,-0.078,0.2756,0.0882,0.0027,-0.0146,0.0,6.35,0.2,-30.85,355.71,-19.61,9.51,3.1,961.08,56.76,43.438065,-96.687706,1340.32,NaN,,27.0,35.48387,178.0,16 / 21,135012,2018-06-18 23:03:03:160
-1.13,3.5371,9.2698,-1.3801,3.3205,9.1271,0.2501,0.2166,0.1427,-0.0405,-0.0429,-0.0256,0.0,5.8,-0.3,-31.4,353.07,-19.78,8.6,3.1,960.94,58.199,43.437912,-96.6877,1338.39,NaN,,39.6,32.258064,177.9,16 / 21,135506,2018-06-18 23:03:03:654
-1.3824,3.1409,9.1101,-1.3683,3.3223,9.1283,-0.0141,-0.1814,-0.0183,-0.0945,0.1033,-0.0178,0.0,6.6,0.05,-32.15,348.86,-19.8,8.52,3.1,961.01,57.495,43.437912,-96.6877,1338.39,NaN,,39.6,32.258064,177.9,16 / 21,136011,2018-06-18 23:03:04:159
-1.6773,3.1203,9.2636,-1.4803,3.1807,9.1611,-0.197,-0.0605,0.1025,0.0423,0.1313,0.013,0.0,6.95,0.1,-31.2,349.18,-18.92,9.18,3.1,960.92,58.027,43.437805,-96.6877,1338.06,NaN,,40.5,35.48387,178.9,16 / 21,136508,2018-06-18 23:03:04:656
-1.5833,2.9998,9.4377,-1.5026,3.1366,9.1728,-0.1082,0.05,0.106,0.0389,0.0812,0.0085,0.0,6.5,0.9,-30.85,349.98,-18.75,9.17,3.1,961.04,57.188,43.437805,-96.6877,1338.06,NaN,,40.5,35.48387,178.9,16 / 21,137010,2018-06-18 23:03:05:158
-1.785,2.7987,9.3314,-1.5319,3.0451,9.1987,-0.2531,-0.2464,0.1328,0.0208,-0.074,0.0096,0.0,6.15,1.9,-32.2,356.85,-18.08,9.46,3.1,961.07,57.508,43.437687,-96.6877,1336.13,NaN,,41.4,35.48387,179.3,16 / 21,137506,2018-06-18 23:03:05:654
-1.5973,3.0297,9.7066,-1.5172,2.9899,9.2192,-0.0801,0.0398,0.4874,-0.0016,-0.0882,0.0032,0.0,7.05,0.65,-32.25,351.1,-17.75,9.35,3.1,961.04,57.366,43.437687,-96.6877,1336.13,NaN,,41.4,35.48387,179.3,16 / 21,138012,2018-06-18 23:03:06:160
-1.5692,2.5847,9.4666,-1.5349,2.8397,9.2636,-0.0343,-0.2551,0.203,0.0083,-0.0202,0.0136,0.0,7.05,1.05,-31.35,349.72,-16.83,9.41,3.1,960.98,58.099,43.437576,-96.687706,1336.45,NaN,,42.3,35.48387,180.7,16 / 21,138507,2018-06-18 23:03:06:655
-1.6898,2.6812,9.62,-1.5809,2.7791,9.2743,-0.109,-0.0979,0.3458,0.0844,-0.0533,0.0101,0.0,7.0,0.9,-32.3,351.53,-16.46,9.67,3.1,961.04,57.241,43.437576,-96.687706,1336.45,NaN,,42.3,35.48387,180.7,16 / 21,139011,2018-06-18 23:03:07:159
-1.3616,2.8356,9.6684,-1.4873,2.7628,9.2946,0.1257,0.0727,0.3738,0.0434,-0.077,0.0021,0.0,6.7,1.9,-33.2,351.53,-16.36,9.09,3.1,961.02,57.805,43.43745,-96.68772,1338.71,NaN,,46.8,35.48387,181.3,16 / 21,139507,2018-06-18 23:03:07:655
-1.4053,2.7857,9.6108,-1.4391,2.7266,9.3129,0.0338,0.0591,0.2979,0.0043,0.0091,0.0138,0.0,5.75,2.35,-32.95,355.47,-16.14,8.78,3.1,960.98,56.533,43.43745,-96.68772,1338.71,NaN,,46.8,35.48387,181.3,16 / 21,140012,2018-06-18 23:03:08:160
-1.4427,2.6118,9.5088,-1.494,2.6237,9.3337,0.0341,0.1205,0.4107,-0.0658,-0.0511,0.012,0.0,6.5,-0.2,-33.3,349.08,-15.89,8.95,3.1,961.09,56.865,43.437325,-96.68773,1340.0,NaN,,50.4,32.258064,182.0,16 / 21,140507,2018-06-18 23:03:08:655
-1.6249,2.516,9.2653,-1.5527,2.6122,9.3274,0.0452,0.0383,0.2007,-0.0107,-0.0818,0.0101,0.0,6.8,0.3,-33.75,351.86,-15.44,9.45,3.1,961.07,56.792,43.437325,-96.68773,1340.0,NaN,,50.4,32.258064,182.0,16 / 21,141011,2018-06-18 23:03:09:159
-1.7219,2.3747,9.1327,-1.4902,2.5206,9.3627,-0.0671,-0.0115,0.0418,-0.0096,-0.0796,0.0162,0.0,6.55,0.65,-34.4,351.9,-15.15,9.28,3.1,961.07,57.031,43.43719,-96.68773,1340.97,NaN,,50.4,32.258064,181.3,16 / 21,141507,2018-06-18 23:03:09:655
-1.5719,2.5467,9.4193,-1.4649,2.605,9.3436,-0.1308,0.0091,0.2073,0.0213,-0.1047,0.0445,0.0,6.55,0.25,-34.2,349.84,-15.4,8.91,3.1,961.02,56.946,43.43719,-96.68773,1340.97,NaN,,50.4,32.258064,181.3,16 / 21,142010,2018-06-18 23:03:10:158
-1.5464,2.6573,9.7744,-1.4128,2.6067,9.3512,-0.0486,0.0464,0.2449,-0.0101,0.0109,0.0242,0.0,5.75,0.35,-34.15,354.68,-15.41,8.59,3.1,961.1,58.175,43.43705,-96.687744,1343.23,NaN,,52.2,35.48387,181.0,16 / 21,142507,2018-06-18 23:03:10:655
-1.2408,2.8031,9.1762,-1.3319,2.6582,9.3485,-0.021,0.0159,-0.226,-0.0293,0.0961,0.0325,0.0,5.5,0.35,-32.4,351.14,-15.68,8.21,3.1,961.1,57.088,43.43705,-96.687744,1343.23,NaN,,52.2,35.48387,181.0,16 / 21,143010,2018-06-18 23:03:11:158
-1.5512,2.6468,9.2566,-1.3948,2.6199,9.3502,-0.1257,-0.003,0.141,-0.0466,-0.0615,0.0261,0.0,4.4,4.05,-32.2,3.51,-15.49,8.48,3.1,961.16,55.861,43.4369,-96.68775,1341.29,NaN,,55.8,32.258064,178.9,16 / 21,143507,2018-06-18 23:03:11:655
-1.6388,2.5965,9.7801,-1.5255,2.6103,9.3323,-0.2042,0.0798,0.5015,0.0724,0.1012,0.0173,0.0,3.6,5.05,-33.35,4.98,-15.31,8.95,3.1,961.18,57.855,43.4369,-96.68775,1341.29,NaN,,55.8,32.258064,178.9,16 / 21,144010,2018-06-18 23:03:12:158
-1.5271,2.6305,9.9043,-1.5168,2.5934,9.3385,0.0183,0.0237,0.2904,0.0423,0.0344,0.0109,0.0,5.65,1.85,-32.7,356.65,-15.33,9.23,3.1,961.2,56.275,43.436775,-96.68774,1345.48,NaN,,54.9,35.48387,178.3,15 / 20,144507,2018-06-18 23:03:12:655
-1.4312,2.5392,9.4069,-1.4551,2.6121,9.3431,0.0811,0.0022,0.1567,-0.0136,-0.086,0.016,0.0,6.05,0.1,-32.2,354.29,-15.44,9.09,3.1,961.19,57.882,43.436775,-96.68774,1345.48,NaN,,54.9,35.48387,178.3,15 / 20,145012,2018-06-18 23:03:13:160
-1.2486,2.7357,9.6579,-1.3755,2.6303,9.3502,0.3597,0.1346,0.4498,0.0061,-0.0975,-0.0011,0.0,6.05,0.65,-31.4,351.4,-15.55,8.37,3.1,961.25,56.593,43.43663,-96.68773,1345.48,NaN,,55.8,35.48387,178.4,15 / 21,145507,2018-06-18 23:03:13:655
-0.777,2.9674,9.6359,-1.1614,2.755,9.3433,0.2775,0.2329,0.1539,-0.0077,-0.0232,-0.0248,0.0,5.95,0.15,-31.75,348.85,-16.29,7.46,3.1,961.25,59.297,43.43663,-96.68773,1345.48,NaN,,55.8,35.48387,178.4,15 / 21,146011,2018-06-18 23:03:14:159
-1.0584,2.8396,9.7636,-1.1758,2.7703,9.3368,0.1203,0.0548,0.4314,-0.0325,0.0455,-0.0059,0.0,5.85,1.2,-32.65,350.14,-16.57,7.18,3.1,961.26,60.325,43.43646,-96.68772,1344.52,NaN,,58.5,35.48387,178.6,15 / 20,146507,2018-06-18 23:03:14:655
-1.2691,2.6221,9.4322,-1.1474,2.7427,9.3485,-0.1235,-0.1118,0.0808,0.0061,0.017,3.0E-4,0.0,5.4,3.55,-31.65,355.28,-16.24,7.0,3.1,961.23,59.508,43.43646,-96.68772,1344.52,NaN,,58.5,35.48387,178.6,15 / 20,147010,2018-06-18 23:03:15:158
-1.4165,2.6231,9.8365,-1.2186,2.6859,9.356,-0.2434,-0.0924,0.4012,0.0317,-0.0011,0.016,0.0,6.15,1.85,-31.6,350.22,-15.93,7.33,3.1,961.2,58.973,43.43634,-96.68774,1342.9,NaN,,55.8,35.48387,180.3,15 / 21,147507,2018-06-18 23:03:15:655
-1.3785,2.5287,9.5446,-1.2812,2.6302,9.3635,-0.1926,-0.0965,0.1344,0.0162,-0.1044,0.012,0.0,5.15,3.6,-33.15,357.85,-15.55,7.79,3.1,961.19,59.344,43.43634,-96.68774,1342.9,NaN,,55.8,35.48387,180.3,15 / 21,148011,2018-06-18 23:03:16:159
-1.4845,2.4756,9.3612,-1.3188,2.6094,9.3641,-0.1956,-0.1407,0.2799,0.0229,0.0306,0.0152,0.0,6.7,1.5,-32.25,347.03,-15.44,8.06,3.1,961.16,56.857,43.436153,-96.68772,1341.61,NaN,,59.4,38.709675,179.7,15 / 21,148507,2018-06-18 23:03:16:655
-1.3484,2.4193,9.0527,-1.3035,2.5868,9.3725,-0.0891,-0.3163,0.0666,-0.0889,-0.5057,0.0296,0.0,7.0,1.0,-31.0,344.05,-15.29,7.92,3.1,961.25,56.646,43.436153,-96.68772,1341.61,NaN,,59.4,38.709675,179.7,15 / 21,149011,2018-06-18 23:03:17:159
-1.1152,2.7011,9.0406,-1.3282,2.6041,9.3642,0.2299,0.1087,0.3634,-0.0698,0.0266,0.0013,0.0,6.7,1.65,-32.05,348.3,-15.68,8.44,3.1,961.26,63.215,43.435993,-96.68772,1339.68,NaN,,61.2,32.258064,180.7,16 / 21,149507,2018-06-18 23:03:17:655
-1.7838,2.3901,9.9512,-1.4346,2.5357,9.3674,-0.25,-0.1015,0.3655,0.0426,0.0386,0.0261,0.0,6.55,2.15,-32.8,349.04,-15.07,8.46,3.1,961.23,55.399,43.435993,-96.68772,1339.68,NaN,,61.2,32.258064,180.7,16 / 21,150010,2018-06-18 23:03:18:158
-1.6231,2.4321,9.8738,-1.4734,2.5155,9.3668,-0.0968,-0.0094,0.3838,-0.013,-0.0586,0.0306,0.0,7.15,0.9,-31.9,348.27,-14.86,8.94,3.1,961.23,56.077,43.435833,-96.68773,1340.0,NaN,,62.1,32.258064,180.8,16 / 21,150507,2018-06-18 23:03:18:655
-1.4991,2.539,9.7477,-1.4387,2.4886,9.3793,0.1082,0.0608,0.125,-0.0474,-0.1158,0.0162,0.0,7.3,0.5,-31.05,346.19,-14.72,8.72,3.1,961.26,56.233,43.435833,-96.68773,1340.0,NaN,,62.1,32.258064,180.8,16 / 21,151011,2018-06-18 23:03:19:159
-1.439,2.4856,9.6022,-1.4373,2.519,9.3714,-0.0016,-0.0334,0.2308,0.0322,0.0991,0.0146,0.0,6.9,0.75,-31.85,347.54,-14.88,8.72,3.1,961.26,55.985,43.435665,-96.68772,1340.0,NaN,,62.1,35.48387,180.4,16 / 21,151508,2018-06-18 23:03:19:656
-1.3944,2.555,9.5073,-1.3788,2.5543,9.3707,-0.0156,7.0E-4,0.1367,-0.0407,-0.061,0.0194,0.0,5.85,3.15,-32.7,354.44,-15.09,8.37,3.1,961.17,57.227,43.435665,-96.68772,1340.0,NaN,,62.1,35.48387,180.4,16 / 21,152010,2018-06-18 23:03:20:158
-1.5237,2.6008,9.6926,-1.3445,2.5952,9.3644,-0.1792,0.0057,0.3283,0.0019,0.0226,0.0141,0.0,5.0,3.8,-32.95,358.83,-15.34,8.17,3.1,961.26,57.541,43.4355,-96.68772,1339.68,NaN,,62.1,35.48387,180.1,16 / 21,152506,2018-06-18 23:03:20:654
-1.455,2.5332,9.5439,-1.3487,2.5856,9.3665,-0.1063,-0.0524,0.1774,0.0016,0.0274,0.0115,0.0,6.55,0.45,-31.2,343.27,-15.28,8.19,3.1,961.28,57.088,43.4355,-96.68772,1339.68,NaN,,62.1,35.48387,180.1,16 / 21,153011,2018-06-18 23:03:21:159
-1.2899,2.636,9.3313,-1.317,2.5856,9.371,0.0271,0.0504,-0.0397,-0.029,0.0479,0.0498,0.0,6.65,0.15,-31.1,342.59,-15.28,8.0,3.1,961.25,57.999,43.435345,-96.68772,1339.68,NaN,,62.1,35.48387,179.9,16 / 21,153508,2018-06-18 23:03:21:656
-1.2152,2.7234,9.5229,-1.2879,2.5718,9.3787,0.0727,0.1516,0.1442,-0.0067,-0.0533,0.0208,0.0,6.9,-0.9,-32.05,341.23,-15.2,7.82,3.1,961.26,61.636,43.435345,-96.68772,1339.68,NaN,,62.1,35.48387,179.9,16 / 21,154011,2018-06-18 23:03:22:159
-1.2933,2.5883,9.6754,-1.3075,2.5577,9.3799,0.0542,0.1186,0.513,-0.0202,-0.081,0.0093,0.0,6.6,-0.3,-32.45,343.71,-15.17,7.97,3.1,961.26,57.699,43.435173,-96.68772,1342.9,NaN,,63.0,32.258064,179.8,16 / 21,154507,2018-06-18 23:03:22:655
-1.5057,2.4543,9.4894,-1.3075,2.539,9.385,-0.0498,-0.003,0.1576,0.0202,0.0652,0.0194,0.0,6.5,-0.65,-31.4,339.83,-15.0,7.93,3.1,961.23,57.181,43.435173,-96.68772,1342.9,NaN,,63.0,32.258064,179.8,16 / 21,155011,2018-06-18 23:03:23:159
-1.2974,2.5354,9.7175,-1.339,2.4803,9.3963,0.1305,0.1338,0.298,-0.053,-0.1049,0.017,0.0,6.6,0.7,-30.8,344.32,-14.72,8.16,3.1,961.18,56.419,43.43502,-96.68772,1344.19,NaN,,63.0,35.48387,179.7,16 / 21,155507,2018-06-18 23:03:23:655
-1.4488,2.4738,9.7606,-1.386,2.4931,9.3861,-0.1651,-0.0151,0.4302,0.0138,-0.0019,0.0133,0.0,5.9,2.2,-31.85,352.95,-14.72,8.4,3.1,961.15,56.924,43.43502,-96.68772,1344.19,NaN,,63.0,35.48387,179.7,16 / 21,156011,2018-06-18 23:03:24:159
-1.1833,2.624,9.5855,-1.2879,2.533,9.3894,0.0195,-7.0E-4,0.0958,-0.0093,0.0181,0.016,0.0,5.2,0.35,-31.95,355.86,-14.96,7.81,3.1,961.11,57.5,43.43488,-96.68772,1342.58,NaN,,61.2,35.48387,179.8,16 / 21,156507,2018-06-18 23:03:24:655
-1.1047,2.6549,9.4156,-1.1623,2.5633,9.3975,0.0576,0.0916,0.0181,0.0312,-0.1278,0.0021,0.0,5.6,-0.8,-31.9,345.68,-15.1,7.25,3.1,961.11,58.651,43.43488,-96.68772,1342.58,NaN,,61.2,35.48387,179.8,16 / 21,157011,2018-06-18 23:03:25:159
-0.8619,2.7522,9.5021,-1.1164,2.5496,9.4067,0.2545,0.2025,0.0954,-0.0719,0.0509,-0.0045,0.0,5.65,0.1,-31.1,344.27,-15.06,6.77,3.1,961.23,58.459,43.434723,-96.68772,1346.45,NaN,,63.0,32.258064,179.2,16 / 21,157506,2018-06-18 23:03:25:654
-1.3017,2.4229,9.5548,-1.1502,2.4871,9.4195,-0.1515,-0.0642,0.1353,0.0655,-0.1846,0.0099,0.0,6.05,0.35,-30.9,344.53,-14.83,6.9,3.1,961.26,59.06,43.434723,-96.68772,1346.45,NaN,,63.0,32.258064,179.2,16 / 21,158012,2018-06-18 23:03:26:160
-1.1526,2.5172,9.6585,-1.1625,2.458,9.4256,0.0099,0.0591,0.2329,0.0168,0.0256,0.0141,0.0,6.55,-0.65,-32.5,337.19,-14.51,7.03,3.1,961.2,59.323,43.43456,-96.68771,1345.81,NaN,,63.0,32.258064,179.7,17 / 21,158507,2018-06-18 23:03:26:655
-1.2045,2.2986,9.4322,-1.1316,2.4348,9.4353,-0.0073,-0.2112,0.037,-0.024,-0.0607,0.0178,0.0,6.95,0.0,-31.55,338.8,-14.37,6.84,3.1,961.2,59.312,43.43456,-96.68771,1345.81,NaN,,63.0,32.258064,179.7,17 / 21,159012,2018-06-18 23:03:27:160
-0.9121,2.458,9.1249,-1.0156,2.4341,9.4488,-0.0325,0.0078,0.3991,0.0053,-0.0738,8.0E-4,0.0,6.35,0.5,-31.4,343.18,-14.37,6.14,3.1,961.18,58.276,43.434402,-96.68773,1344.52,NaN,,62.1,32.258064,179.9,18 / 21,159507,2018-06-18 23:03:27:655
-0.9097,2.7314,9.7771,-0.9793,2.4823,9.44,-0.003,0.0575,0.2304,0.0075,0.0282,0.0043,0.0,5.5,1.75,-33.4,346.15,-14.66,5.92,3.1,961.24,58.825,43.434402,-96.68773,1344.52,NaN,,62.1,32.258064,179.9,18 / 21,160011,2018-06-18 23:03:28:159
-1.1197,2.5449,9.6292,-0.9965,2.4788,9.4391,0.109,0.1876,-0.0654,-0.0157,-0.0519,-0.0032,0.0,5.5,-0.35,-33.45,343.51,-14.64,6.03,3.1,961.17,57.482,43.43425,-96.68772,1342.58,NaN,,62.1,35.48387,180.0,18 / 21,160507,2018-06-18 23:03:28:655
-1.4201,2.369,9.5166,-1.1782,2.4121,9.4355,-0.5262,-0.2636,0.0864,0.0064,0.0629,0.0085,0.0,6.45,-0.5,-33.45,347.24,-14.23,7.12,3.1,961.18,58.088,43.43425,-96.68772,1342.58,NaN,,62.1,35.48387,180.0,18 / 21,161011,2018-06-18 23:03:29:159
-1.3577,2.3525,9.6647,-1.2233,2.4,9.4328,-0.2661,-0.1145,0.1271,-0.0407,0.013,0.0181,0.0,7.35,-0.3,-34.0,343.5,-14.12,7.5,3.1,961.27,58.192,43.434093,-96.68773,1346.13,NaN,,62.1,32.258064,180.9,18 / 21,161507,2018-06-18 23:03:29:655
-1.1939,2.4278,9.4686,-1.2228,2.4283,9.4256,0.0289,-4.0E-4,0.043,0.0264,-0.0916,0.004,0.0,6.3,-0.85,-33.7,348.24,-14.33,7.39,3.1,961.18,59.489,43.434093,-96.68773,1346.13,NaN,,62.1,32.258064,180.9,18 / 21,162006,2018-06-18 23:03:30:154
-1.4641,2.3369,9.8256,-1.2598,2.4161,9.424,-0.2043,-0.0792,0.4016,-0.0258,0.0759,0.0149,0.0,6.45,0.55,-34.05,351.34,-14.26,7.61,3.1,961.33,58.065,43.43394,-96.68771,1349.03,NaN,,62.1,35.48387,180.4,18 / 21,162507,2018-06-18 23:03:30:655
-1.2774,2.4899,9.5129,-1.2629,2.4398,9.4174,-0.0145,0.0501,0.0955,-0.0146,-0.0019,0.0192,0.0,6.4,0.3,-32.9,349.39,-14.4,7.64,3.1,961.3,59.324,43.43394,-96.68771,1349.03,NaN,,62.1,35.48387,180.4,18 / 21,163010,2018-06-18 23:03:31:158
-1.2836,2.5293,10.605,-1.2783,2.4236,9.4195,-0.0052,0.1057,1.1855,0.1278,0.1395,0.028,0.0,6.65,0.25,-31.1,340.52,-14.3,7.73,3.1,961.24,58.969,43.43378,-96.68772,1349.03,NaN,,62.1,35.48387,180.7,18 / 21,163507,2018-06-18 23:03:31:655
-1.415,2.212,9.6907,-1.1529,2.3501,9.4542,-0.2621,-0.1382,0.2365,-0.0035,-0.1052,0.0176,0.0,6.4,-0.25,-30.95,343.72,-13.86,6.95,3.1,961.25,58.804,43.43378,-96.68772,1349.03,NaN,,62.1,35.48387,180.7,18 / 21,164011,2018-06-18 23:03:32:159
-1.1798,2.0187,9.3027,-1.1781,2.3362,9.4545,-0.0018,-0.3175,-0.1518,0.0338,-0.077,0.0067,0.0,6.75,0.55,-31.85,341.12,-13.78,7.1,3.1,961.19,58.393,43.433624,-96.68772,1346.45,NaN,,62.1,35.48387,180.4,18 / 21,164507,2018-06-18 23:03:32:655
-0.8897,2.1853,9.4513,-1.0818,2.2952,9.476,0.1921,-0.1099,-0.0247,-0.0194,0.0019,0.0045,0.0,6.65,-0.25,-31.7,336.44,-13.53,6.51,3.1,961.22,58.934,43.433624,-96.68772,1346.45,NaN,,62.1,35.48387,180.4,18 / 21,165011,2018-06-18 23:03:33:159
-0.7796,2.3206,9.7018,-1.0513,2.2489,9.4906,0.2717,0.0717,0.2112,-0.0341,0.0027,0.0226,0.0,6.4,-0.3,-31.35,340.53,-13.25,6.32,3.1,961.23,59.554,43.43347,-96.68772,1343.55,NaN,,62.1,35.48387,180.1,18 / 21,165507,2018-06-18 23:03:33:655
-1.0951,2.2093,9.6331,-1.0664,2.2425,9.4904,-0.0287,-0.0332,0.1427,-0.0527,0.0224,0.0091,0.0,6.8,-0.45,-31.35,334.17,-13.21,6.41,3.1,961.2,60.305,43.43347,-96.68772,1343.55,NaN,,62.1,35.48387,180.1,18 / 21,166011,2018-06-18 23:03:34:159
-1.5939,2.1578,9.6971,-1.2758,2.1512,9.4858,-0.3181,0.0066,0.2114,0.0056,0.077,0.0224,0.0,7.15,-0.35,-31.6,339.53,-12.67,7.66,3.1,961.26,58.835,43.433334,-96.68771,1346.45,NaN,,60.3,38.709675,179.7,18 / 21,166506,2018-06-18 23:03:34:654
-1.4262,2.1871,9.7634,-1.2343,2.1708,9.4868,-0.1919,0.0163,0.2766,0.0461,-0.1135,0.0141,0.0,7.2,-0.4,-31.45,337.21,-12.78,7.41,3.1,961.23,58.281,43.433334,-96.68771,1346.45,NaN,,60.3,38.709675,179.7,18 / 21,167011,2018-06-18 23:03:35:159
-1.202,2.2199,9.6359,-1.2363,2.1772,9.485,0.0343,0.0427,0.1509,-0.0413,0.1417,0.0157,0.0,7.25,-0.4,-31.05,337.32,-12.82,7.43,3.1,961.21,55.972,43.433174,-96.687706,1342.58,NaN,,60.3,35.48387,179.4,17 / 20,167507,2018-06-18 23:03:35:655
-1.3747,2.3001,9.3229,-1.1269,2.2401,9.484,-0.2479,0.06,-0.1611,0.053,-0.0961,3.0E-4,0.0,6.65,0.35,-31.7,336.9,-13.2,6.78,3.1,961.18,56.623,43.433174,-96.687706,1342.58,NaN,,60.3,35.48387,179.4,17 / 20,168011,2018-06-18 23:03:36:159
-0.8056,2.3076,9.482,-1.0299,2.245,9.4939,0.1518,-0.0439,0.1319,0.0152,0.0104,0.0043,0.0,6.45,-0.3,-32.55,343.96,-13.15,6.56,3.1,961.18,59.41,43.433006,-96.68771,1342.58,NaN,,62.1,38.709675,179.5,17 / 21,168506,2018-06-18 23:03:36:654
-0.5964,2.5356,9.4151,-0.8463,2.3086,9.4967,0.1325,0.1458,-0.0519,-0.0085,0.0557,-0.0053,0.0,5.15,2.85,-32.85,349.2,-13.61,5.09,3.1,961.15,57.667,43.433006,-96.68771,1342.58,NaN,,62.1,38.709675,179.5,17 / 21,169012,2018-06-18 23:03:37:160
-0.8826,2.5348,9.6446,-0.8233,2.3513,9.4883,0.0542,0.2359,0.1483,0.0,-0.0525,-0.0024,0.0,5.2,2.3,-32.15,346.88,-13.93,4.87,3.1,961.23,73.043,43.432903,-96.68771,1343.23,NaN,,55.8,32.258064,178.7,17 / 21,169507,2018-06-18 23:03:37:655
-1.2303,2.3131,9.7941,-0.9378,2.3311,9.4826,-0.2331,0.016,0.3851,0.0011,-0.0836,0.0109,0.0,6.4,0.65,-31.35,340.92,-13.75,5.65,3.1,961.26,60.313,43.432903,-96.68771,1343.23,NaN,,55.8,32.258064,178.7,17 / 21,170011,2018-06-18 23:03:38:159
-1.1387,2.2289,9.65,-0.9397,2.3561,9.4763,-0.0454,0.0242,0.2916,0.0218,-0.0301,0.0234,0.0,6.05,1.05,-31.7,342.2,-13.9,5.66,3.1,961.06,59.099,43.432774,-96.68771,1342.26,NaN,,54.9,32.258064,179.7,17 / 21,170507,2018-06-18 23:03:38:655
-0.9206,2.4576,9.5195,-0.9264,2.3658,9.4751,-0.0983,-0.034,0.1431,0.0045,0.049,0.0048,0.0,4.7,2.35,-33.15,350.01,-14.0,5.59,3.1,961.17,59.401,43.432774,-96.68771,1342.26,NaN,,54.9,32.258064,179.7,17 / 21,171011,2018-06-18 23:03:39:159
-0.8775,2.4976,9.6491,-0.9396,2.3717,9.4725,0.0567,0.122,0.1771,-0.0306,0.1145,0.0027,0.0,6.65,0.15,-31.45,332.88,-13.99,5.66,3.1,961.19,59.402,43.432636,-96.687706,1340.97,NaN,,54.9,35.48387,180.0,17 / 21,171507,2018-06-18 23:03:39:655
-0.9336,2.4642,9.784,-1.0224,2.3583,9.4672,0.0587,0.0834,0.3191,-0.1366,0.3438,-0.0258,0.0,6.55,-0.1,-31.45,333.97,-14.07,5.95,3.1,961.19,60.107,43.432636,-96.687706,1340.97,NaN,,54.9,35.48387,180.0,17 / 21,172011,2018-06-18 23:03:40:159
-1.3421,2.2859,10.0769,-1.158,2.2834,9.4699,-0.1677,0.0292,0.6026,0.0546,0.0115,0.0229,0.0,6.4,1.6,-31.9,347.71,-13.46,6.97,3.1,961.2,63.795,43.432507,-96.6877,1338.71,NaN,,54.0,35.48387,179.9,17 / 21,172508,2018-06-18 23:03:40:656
-1.4976,1.9793,10.1305,-1.1734,2.2819,9.4684,-0.3,-0.2967,0.6637,-0.0421,-0.0104,0.0141,0.0,6.15,2.7,-32.75,350.71,-13.42,7.32,3.1,961.16,61.518,43.432507,-96.6877,1338.71,NaN,,54.0,35.48387,179.9,17 / 21,173012,2018-06-18 23:03:41:160
-0.9034,2.4817,9.6688,-1.0772,2.4089,9.4484,0.1501,0.0738,0.2176,-0.0258,-0.0037,-0.0085,0.0,6.65,1.25,-31.35,338.47,-14.22,6.5,3.1,961.31,60.669,43.43239,-96.6877,1338.71,NaN,,52.2,32.258064,180.1,17 / 21,173506,2018-06-18 23:03:41:654
-1.2245,2.3774,9.6599,-1.0104,2.428,9.4509,-0.222,-0.0516,0.2084,0.0067,0.0621,0.0152,0.0,7.1,-0.25,-30.7,335.03,-14.39,6.12,3.1,961.07,58.384,43.43239,-96.6877,1338.71,NaN,,52.2,32.258064,180.1,17 / 21,174011,2018-06-18 23:03:42:159
-1.383,2.2187,9.8149,-1.1623,2.2908,9.4677,-0.2468,-0.0867,0.3477,-0.0016,0.0099,0.0067,0.0,6.3,0.1,-32.55,345.03,-13.72,6.68,3.1,961.16,57.592,43.432266,-96.6877,1338.71,NaN,,51.3,32.258064,180.7,17 / 21,174506,2018-06-18 23:03:42:654
-1.4975,2.166,9.6772,-1.215,2.2449,9.472,-0.2867,-0.0865,0.2066,0.0469,-0.0535,0.013,0.0,6.7,0.9,-31.95,341.21,-13.23,7.31,3.1,961.17,57.971,43.432266,-96.6877,1338.71,NaN,,51.3,32.258064,180.7,17 / 21,175011,2018-06-18 23:03:43:159
-1.1056,2.2721,9.5769,-1.1022,2.2675,9.4804,-0.0024,-0.0063,0.1789,5.0E-4,-0.0676,0.0072,0.0,6.6,0.35,-31.1,335.21,-13.36,6.63,3.1,961.23,57.06,43.43214,-96.6877,1337.1,NaN,,50.4,32.258064,180.4,17 / 21,175507,2018-06-18 23:03:43:655
-0.9411,1.9296,9.7013,-1.0156,2.184,9.5096,0.3664,-0.3422,0.226,0.033,-0.253,-0.0506,0.0,6.8,-0.15,-31.65,333.83,-12.86,6.1,3.1,961.26,59.069,43.43214,-96.6877,1337.1,NaN,,50.4,32.258064,180.4,17 / 21,176011,2018-06-18 23:03:44:159
-0.9195,1.605,10.0317,-1.0281,1.9843,9.5519,0.0109,-0.4242,0.416,0.0578,0.066,-8.0E-4,0.0,6.2,1.9,-33.5,344.41,-11.67,6.14,3.1,961.29,59.173,43.432022,-96.68769,1337.74,NaN,,49.5,32.258064,180.2,17 / 21,176507,2018-06-18 23:03:44:655
-0.6041,1.493,9.9085,-0.9535,1.8302,9.5904,0.2386,-0.3899,0.1485,-0.0083,0.037,0.0021,0.0,7.35,1.3,-33.2,332.92,-10.75,5.68,3.1,961.06,56.927,43.432022,-96.68769,1337.74,NaN,,49.5,32.258064,180.2,17 / 21,177011,2018-06-18 23:03:45:159
-0.5371,1.2197,10.2658,-0.8451,1.6499,9.6332,0.3081,-0.4302,0.6326,0.0112,-0.0234,0.0099,0.0,7.65,0.25,-31.65,316.65,-9.68,5.01,3.1,961.07,56.012,43.4319,-96.68768,1334.84,NaN,,49.5,32.258064,180.6,17 / 21,177507,2018-06-18 23:03:45:655
-0.4004,1.1433,9.8589,-0.6088,1.503,9.675,0.2084,-0.3597,0.184,0.0181,-0.078,0.0016,0.0,7.95,0.55,-31.7,314.92,-8.81,3.6,3.1,961.2,55.102,43.4319,-96.68768,1334.84,NaN,,49.5,32.258064,180.6,17 / 21,178011,2018-06-18 23:03:46:159
-0.5419,1.1788,9.9753,-0.5181,1.4455,9.6891,0.0834,-0.0651,0.3185,-0.0101,-0.0165,-0.0016,0.0,7.7,0.25,-32.75,308.31,-8.47,3.06,3.1,961.08,55.231,43.431786,-96.68769,1334.19,NaN,,47.7,35.48387,181.8,18 / 21,178507,2018-06-18 23:03:46:655
-0.4597,1.2864,10.1535,-0.4236,1.415,9.698,0.1395,-0.1201,0.4112,-0.0583,-0.0748,0.0125,0.0,7.8,-0.95,-31.85,299.11,-8.29,2.5,3.1,961.11,53.258,43.431786,-96.68769,1334.19,NaN,,47.7,35.48387,181.8,18 / 21,179012,2018-06-18 23:03:47:160
-0.1593,1.0314,10.0911,-0.3431,1.3197,9.7146,0.2649,-0.2003,0.3516,-0.0032,-0.0051,0.0149,0.0,7.05,0.55,-31.7,312.24,-7.73,2.02,3.1,961.2,52.446,43.43168,-96.6877,1335.48,NaN,,44.1,35.48387,183.1,18 / 21,179506,2018-06-18 23:03:47:654
-0.1012,0.9299,10.0645,-0.3152,1.1614,9.7358,0.1171,-0.3462,0.4206,0.0048,0.0599,-0.0032,0.0,7.55,-0.95,-33.35,293.01,-6.8,1.85,3.1,961.06,53.069,43.43168,-96.6877,1335.48,NaN,,44.1,35.48387,183.1,18 / 21,180010,2018-06-18 23:03:48:158
-0.0831,0.7559,10.333,-0.2855,1.032,9.7513,0.1621,-0.2283,0.5339,0.0176,0.0248,0.0096,0.0,6.9,1.65,-34.55,313.61,-6.04,1.68,3.1,961.08,51.019,43.431587,-96.68771,1334.52,NaN,,41.4,35.48387,184.9,18 / 21,180507,2018-06-18 23:03:48:655
-0.222,0.7112,10.2411,-0.2588,0.9462,9.7608,0.0632,-0.1941,0.6344,0.0075,-0.0109,0.0053,0.0,7.75,-0.6,-34.2,287.98,-5.53,1.52,3.1,961.22,49.959,43.431587,-96.68771,1334.52,NaN,,41.4,35.48387,184.9,18 / 21,181011,2018-06-18 23:03:49:159
0.2278,0.9165,10.2402,-0.1858,0.8941,9.7673,0.1343,-0.1754,0.5547,-0.0181,-0.0341,0.0011,0.0,7.85,-1.25,-33.8,286.06,-5.23,1.09,3.1,961.16,50.182,43.431496,-96.68772,1337.1,NaN,,38.7,35.48387,187.2,18 / 21,181507,2018-06-18 23:03:49:655
-0.1684,1.4222,9.8543,-0.0677,0.9535,9.7633,0.0428,0.2016,0.1826,-0.0272,0.0895,-0.0099,0.0,8.3,-2.1,-34.05,279.65,-5.58,0.4,3.1,961.29,47.414,43.431496,-96.68772,1337.1,NaN,,38.7,35.48387,187.2,18 / 21,182011,2018-06-18 23:03:50:159
-0.9198,2.9769,9.4868,-0.3203,1.6859,9.6587,-0.5995,1.2909,-0.1718,0.069,-0.0607,-0.045,0.0,8.1,-1.7,-33.75,299.68,-9.9,1.9,3.1,961.17,48.436,43.431393,-96.68776,1337.74,NaN,,39.6,38.709675,191.6,18 / 21,182508,2018-06-18 23:03:50:656
-0.6911,3.0246,9.5174,-0.3269,2.0883,9.5795,-0.4085,0.841,-0.0331,0.0314,-0.0834,-0.1361,0.0,7.7,-1.15,-31.95,310.46,-12.29,1.95,3.1,961.32,47.199,43.431393,-96.68776,1337.74,NaN,,39.6,38.709675,191.6,18 / 21,183008,2018-06-18 23:03:51:156
-0.7094,3.1753,9.4424,-0.3501,2.4784,9.4852,-0.3438,0.9993,-0.201,0.0229,-0.0426,-0.1577,0.0,7.95,0.25,-31.1,319.07,-14.63,2.11,3.1,961.29,46.663,43.431423,-96.687744,1338.39,NaN,,21.6,35.48387,191.7,18 / 21,183506,2018-06-18 23:03:51:654
-0.4883,4.1078,9.3243,-0.3708,2.9011,9.3638,-0.1855,1.1089,0.0145,0.0288,-0.0764,-0.2692,0.0,9.05,0.1,-30.95,320.03,-17.2,2.27,3.1,961.29,48.421,43.431423,-96.687744,1338.39,NaN,,21.6,35.48387,191.7,18 / 21,184011,2018-06-18 23:03:52:159
-0.5464,4.4775,9.0951,-0.5678,3.4747,9.1563,-0.0766,0.9659,-0.1506,0.0471,-0.1435,-0.3462,0.0,10.5,1.55,-30.9,325.27,-20.74,3.55,3.1,961.3,51.281,43.431442,-96.687744,1339.68,NaN,,11.7,32.258064,198.6,18 / 21,184508,2018-06-18 23:03:52:656
0.2887,4.4628,9.4448,-0.5224,3.8105,9.0246,0.7664,0.6642,0.5224,-0.0128,-0.0674,-0.3864,0.0,11.65,4.1,-32.75,328.98,-22.86,3.31,3.1,961.33,53.135,43.431442,-96.687744,1339.68,NaN,,11.7,32.258064,198.6,18 / 21,185006,2018-06-18 23:03:53:154
0.267,4.1601,8.5909,-0.6646,4.242,8.8203,0.6299,0.6046,0.1759,-0.106,-0.1798,-0.216,0.0,12.1,5.75,-32.9,334.66,-25.62,4.31,3.1,961.21,54.909,43.43141,-96.687775,1336.77,NaN,,14.4,32.258064,217.9,18 / 21,185506,2018-06-18 23:03:53:654
0.9106,5.1713,9.2925,-0.1835,4.626,8.6487,0.9537,0.4369,0.1787,-0.0024,-0.1523,-0.4296,0.0,16.8,9.35,-32.55,325.45,-28.14,1.22,3.1,961.09,58.549,43.43141,-96.687775,1336.77,NaN,,14.4,32.258064,217.9,18 / 21,186011,2018-06-18 23:03:54:159
0.0645,5.1008,8.9243,-0.3449,4.7773,8.5611,0.4094,0.3235,0.3631,-0.074,-0.2139,-0.3337,0.0,19.25,11.8,-32.2,325.84,-29.0,2.02,3.1,961.09,55.926,43.431393,-96.68782,1332.58,NaN,,18.0,32.258064,234.8,18 / 21,186507,2018-06-18 23:03:54:655
-0.4375,4.8948,9.0919,-0.5335,4.7908,8.5439,0.096,0.104,0.548,-0.0415,-0.1148,-0.1768,0.0,19.2,14.2,-34.85,330.66,-29.23,3.57,3.1,961.25,55.054,43.431393,-96.68782,1332.58,NaN,,18.0,32.258064,234.8,18 / 21,187011,2018-06-18 23:03:55:159
-1.358,4.1877,9.0268,-0.8682,4.5601,8.6421,-0.4898,-0.3724,0.3847,-0.0133,-0.0258,-0.0815,0.0,18.5,16.4,-34.05,332.92,-28.29,5.22,3.1,961.19,57.795,43.431393,-96.68792,1332.58,NaN,,25.2,32.258064,260.0,18 / 21,187507,2018-06-18 23:03:55:655
-1.5274,4.0332,9.1192,-1.1611,4.3702,8.7056,-0.3663,-0.3369,0.4136,-0.0261,-0.0831,-0.0229,0.0,18.4,17.1,-33.8,336.79,-26.93,7.36,3.1,961.22,59.177,43.431393,-96.68792,1332.58,NaN,,25.2,32.258064,260.0,18 / 21,188011,2018-06-18 23:03:56:159
-1.7135,3.9343,9.0864,-1.2834,4.2483,8.7487,-0.4301,-0.314,0.3377,0.0397,0.0514,-0.0093,0.0,18.0,17.85,-34.85,338.52,-25.66,8.35,3.1,961.16,59.617,43.431393,-96.68803,1330.32,NaN,,27.0,35.48387,261.5,18 / 21,188506,2018-06-18 23:03:56:654
-1.5984,3.9334,9.4241,-1.3009,4.1579,8.7894,-0.2974,-0.2245,0.6347,-0.1792,-0.1688,0.0277,0.0,18.3,17.05,-35.45,338.12,-25.31,8.58,3.1,961.16,58.368,43.431393,-96.68803,1330.32,NaN,,27.0,35.48387,261.5,18 / 21,189011,2018-06-18 23:03:57:159
-1.6166,4.0221,9.103,-1.3331,4.1163,8.8041,-0.2835,-0.0942,0.2989,0.0149,0.0754,0.0165,0.0,17.7,16.75,-34.05,337.49,-24.81,8.61,3.1,961.1,59.418,43.431385,-96.68811,1329.68,NaN,,27.0,35.48387,262.3,18 / 21,189506,2018-06-18 23:03:57:654
-1.8118,3.8687,9.0175,-1.4107,4.0432,8.8259,-0.4012,-0.1745,0.1916,-0.0368,-0.1337,0.016,0.0,16.8,19.65,-35.15,341.45,-24.34,9.08,3.1,961.2,56.947,43.431385,-96.68811,1329.68,NaN,,27.0,35.48387,262.3,18 / 21,190011,2018-06-18 23:03:58:159
-1.7874,3.991,9.0271,-1.5168,3.9706,8.8412,-0.2706,0.0204,0.1859,-0.0224,-0.0543,0.0173,0.0,17.3,19.0,-36.15,342.03,-23.88,9.73,3.1,961.1,56.596,43.431385,-96.688225,1328.39,NaN,,29.7,35.48387,264.1,19 / 22,190507,2018-06-18 23:03:58:655
-1.8231,3.8683,8.9756,-1.5813,3.9446,8.8417,-0.2417,-0.0763,0.134,-0.0684,-0.1119,0.0245,0.0,17.4,17.05,-34.95,340.95,-23.71,10.14,3.1,961.15,57.773,43.431385,-96.688225,1328.39,NaN,,29.7,35.48387,264.1,19 / 22,191011,2018-06-18 23:03:59:159
-1.7036,4.1117,8.8752,-1.6171,3.9302,8.8415,-0.0865,0.1814,0.0337,0.0706,0.184,-0.0101,0.0,17.65,17.8,-34.15,339.62,-23.62,10.36,3.1,961.07,57.165,43.431385,-96.688354,1329.03,NaN,,30.6,38.709675,264.8,19 / 22,191507,2018-06-18 23:03:59:655
-1.7536,3.9668,9.2633,-1.755,3.8644,8.8444,0.0013,0.1024,0.419,-0.0083,-0.0951,0.0072,0.0,17.8,18.0,-33.7,340.44,-23.2,11.22,3.1,961.21,60.32,43.431385,-96.688354,1329.03,NaN,,30.6,38.709675,264.8,19 / 22,192011,2018-06-18 23:04:00:159
-2.131,3.8311,9.6045,-1.8698,3.8358,8.8331,-0.2612,-0.0046,0.7713,0.0522,-0.114,0.024,0.0,17.9,18.65,-34.1,341.7,-23.02,11.95,3.1,961.21,58.203,43.431362,-96.688515,1330.65,NaN,,35.1,41.935486,263.6,20 / 23,192508,2018-06-18 23:04:00:656
-1.9421,3.8897,9.3142,-1.8407,3.7979,8.8556,-0.1013,0.0918,0.4586,-0.0051,-0.0567,0.0226,0.0,18.5,18.35,-35.1,339.89,-22.78,11.74,3.1,961.24,60.551,43.431362,-96.688515,1330.65,NaN,,35.1,41.935486,263.6,20 / 23,193011,2018-06-18 23:04:01:159
-1.8823,3.6268,9.2183,-1.7609,3.7606,8.8878,-0.1214,-0.1338,0.3305,0.0708,0.0589,0.0077,0.0,17.65,19.65,-34.75,341.78,-22.54,11.21,3.1,961.18,60.103,43.43136,-96.688705,1330.0,NaN,,40.5,41.935486,265.1,20 / 23,193508,2018-06-18 23:04:01:656
-1.5273,3.6675,8.9511,-1.6109,3.7766,8.9093,0.0837,-0.1091,0.0418,0.0133,-0.0506,0.0256,0.0,18.05,19.95,-34.5,340.3,-22.64,10.25,3.1,961.15,58.334,43.43136,-96.688705,1330.0,NaN,,40.5,41.935486,265.1,20 / 23,194011,2018-06-18 23:04:02:159
-1.6642,3.1032,8.7327,-1.4925,3.6963,8.9635,0.0461,-0.1723,0.035,0.0048,0.4474,-0.0021,0.0,17.65,17.45,-33.8,337.58,-22.13,9.45,3.1,961.08,58.105,43.431343,-96.6889,1330.32,NaN,,45.9,41.935486,265.1,20 / 23,194508,2018-06-18 23:04:02:656
-1.3222,3.3686,9.071,-1.4515,3.5648,9.0232,0.0985,-0.1956,0.2748,-0.0658,-0.0341,0.0088,0.0,17.55,16.95,-34.9,337.47,-21.31,9.14,3.1,961.17,61.66,43.431343,-96.6889,1330.32,NaN,,45.9,41.935486,265.1,20 / 23,195011,2018-06-18 23:04:03:159
-1.5565,3.3786,9.5027,-1.4984,3.4035,9.0777,0.0196,-0.1211,0.3922,-0.0067,-0.0647,0.0123,0.0,17.95,17.8,-35.15,338.02,-20.3,9.37,3.1,961.11,58.176,43.43133,-96.6891,1329.03,NaN,,49.5,41.935486,265.4,20 / 23,195507,2018-06-18 23:04:03:655
-1.4189,3.306,9.407,-1.4291,3.4072,9.0875,-0.0118,-0.1269,0.2268,0.0573,-0.0045,0.0138,0.0,18.15,18.35,-34.5,337.05,-20.32,8.94,3.1,961.2,57.422,43.43133,-96.6891,1329.03,NaN,,49.5,41.935486,265.4,20 / 23,196012,2018-06-18 23:04:04:160
-1.1909,3.1614,8.9536,-1.3578,3.2955,9.1395,0.1669,-0.1341,-0.1859,-0.0405,-0.0895,0.0141,4.0,18.0,18.1,-34.45,336.27,-19.63,8.45,3.1,961.09,59.788,43.431343,-96.68933,1329.68,NaN,,53.1,41.935486,266.9,20 / 23,196508,2018-06-18 23:04:04:656
-1.3756,3.2565,9.5353,-1.4024,3.2036,9.1654,0.0268,0.0528,0.3699,-0.0085,0.073,0.0194,0.0,18.0,18.2,-34.25,336.34,-19.06,8.7,3.1,961.09,59.434,43.431343,-96.68933,1329.68,NaN,,53.1,41.935486,266.9,20 / 23,197012,2018-06-18 23:04:05:160
-1.2688,3.0812,9.2946,-1.2858,3.1436,9.2032,0.0171,-0.0624,0.0915,-0.0453,-0.0924,0.0192,0.0,17.4,20.05,-36.05,339.15,-18.69,7.95,3.1,961.04,58.536,43.431385,-96.68959,1328.06,NaN,,57.6,41.935486,269.4,20 / 23,197507,2018-06-18 23:04:05:655
-1.1807,3.0046,9.5286,-1.2056,3.1484,9.2124,0.0248,-0.1439,0.3161,-0.0197,0.0658,0.0064,0.0,17.95,17.7,-35.05,335.3,-18.72,7.46,3.1,961.21,58.57,43.431385,-96.68959,1328.06,NaN,,57.6,41.935486,269.4,20 / 23,198012,2018-06-18 23:04:06:160
-1.1269,2.7889,9.3961,-1.1459,3.04,9.2563,0.019,-0.2512,0.1398,-0.0602,0.1044,0.0016,0.0,17.35,18.3,-34.45,335.78,-18.05,7.06,3.1,961.2,58.721,43.431374,-96.689835,1328.06,NaN,,60.3,41.935486,268.8,20 / 23,198507,2018-06-18 23:04:06:655
-1.7129,2.674,10.005,-1.3074,2.9334,9.2693,-0.4055,-0.2594,0.7357,0.0807,0.1132,0.0091,0.0,18.1,17.7,-33.9,334.97,-17.4,8.03,3.1,961.08,59.182,43.431374,-96.689835,1328.06,NaN,,60.3,41.935486,268.8,20 / 23,199011,2018-06-18 23:04:07:159
-1.3156,2.8147,9.3786,-1.2346,2.9147,9.2852,-0.081,-0.1,0.0934,-0.1912,-0.5555,0.0719,0.0,17.7,18.0,-33.5,333.96,-17.28,7.57,3.1,961.18,58.945,43.431385,-96.690094,1324.84,NaN,,63.9,41.935486,269.4,20 / 23,199509,2018-06-18 23:04:07:657
-1.1041,2.904,9.6413,-1.1647,2.8686,9.3085,0.0606,0.0353,0.3328,0.1079,-0.1222,0.0296,0.0,17.75,17.95,-37.45,335.12,-17.0,7.13,3.1,961.15,59.648,43.431385,-96.690094,1324.84,NaN,,63.9,41.935486,269.4,20 / 23,200009,2018-06-18 23:04:08:157
-1.2075,2.836,9.8923,-1.2068,2.8448,9.3105,-7.0E-4,-0.0088,0.5818,-0.0684,-0.1273,0.0312,0.0,17.25,17.8,-37.4,336.99,-16.86,7.39,3.1,961.06,58.863,43.431404,-96.69034,1325.81,NaN,,65.7,38.709675,271.6,20 / 23,200507,2018-06-18 23:04:08:655
-1.0695,2.7393,9.7946,-1.1604,2.7733,9.3379,0.0909,-0.034,0.4567,0.0591,0.0993,0.004,0.0,17.95,16.25,-36.75,333.22,-16.42,7.08,3.1,961.17,59.103,43.431404,-96.69034,1325.81,NaN,,65.7,38.709675,271.6,20 / 23,201013,2018-06-18 23:04:09:161
-1.0579,2.6516,9.6597,-1.1047,2.7281,9.3579,0.0469,-0.0765,0.3018,0.0573,0.0876,0.004,0.0,18.15,16.15,-36.9,332.65,-16.15,6.73,3.1,961.17,59.638,43.431423,-96.690575,1324.19,NaN,,66.6,38.709675,271.4,20 / 23,201506,2018-06-18 23:04:09:654
-0.946,2.5285,9.8054,-1.0185,2.6507,9.39,0.0724,-0.1221,0.4154,0.0091,-0.1622,0.0136,0.0,18.15,16.1,-36.6,331.74,-15.68,6.19,3.1,961.17,58.399,43.431423,-96.690575,1324.19,NaN,,66.6,38.709675,271.4,20 / 23,202011,2018-06-18 23:04:10:159
-0.7113,2.4941,9.3789,-0.9213,2.592,9.4163,0.21,-0.0979,-0.0374,-0.0586,-0.0991,0.0194,0.0,18.0,16.6,-36.7,331.71,-15.32,5.59,3.1,961.06,59.18,43.43146,-96.69081,1322.58,NaN,,67.5,38.709675,272.7,20 / 23,202506,2018-06-18 23:04:10:654
-0.8077,2.5212,9.5708,-0.8501,2.6453,9.4082,0.2546,0.2236,0.1666,-0.0059,0.0402,0.0013,0.0,18.0,16.5,-36.65,331.37,-15.64,5.16,3.1,961.09,58.583,43.43146,-96.69081,1322.58,NaN,,67.5,38.709675,272.7,20 / 23,203012,2018-06-18 23:04:11:160
-0.8303,2.908,9.4738,-0.8227,2.7155,9.3906,-0.0076,0.1925,0.0832,0.0328,0.0146,3.0E-4,0.0,17.3,18.0,-34.6,333.1,-16.07,5.01,3.1,961.09,58.716,43.43145,-96.69104,1322.26,NaN,,67.5,38.709675,271.8,19 / 22,203506,2018-06-18 23:04:11:654
-1.1375,2.7065,9.4768,-0.8713,2.7273,9.3828,-0.2661,-0.0208,0.094,-0.0208,-0.0328,0.0261,0.0,17.15,18.65,-34.9,334.24,-16.14,5.31,3.1,961.07,58.795,43.43145,-96.69104,1322.26,NaN,,67.5,38.709675,271.8,19 / 22,204011,2018-06-18 23:04:12:159
-1.0736,2.976,9.9898,-0.9408,2.7519,9.3689,-0.1328,0.2241,0.6209,0.0328,0.0908,-0.0013,0.0,17.65,17.5,-34.45,331.98,-16.29,5.73,3.1,961.04,58.3,43.431473,-96.69127,1321.29,NaN,,66.6,38.709675,272.9,19 / 23,204507,2018-06-18 23:04:12:655
-1.1804,2.7421,9.7362,-0.968,2.767,9.3617,-0.2124,-0.0248,0.3745,-0.0879,-0.0485,0.0269,0.0,17.45,17.05,-34.4,333.02,-16.38,5.9,3.1,961.06,59.233,43.431473,-96.69127,1321.29,NaN,,66.6,38.709675,272.9,19 / 23,205012,2018-06-18 23:04:13:160
-1.2809,2.9022,9.8124,-0.9788,2.81,9.3478,-0.0659,0.1325,-0.2185,-0.0309,0.0053,0.0149,0.0,17.45,16.9,-34.75,333.64,-16.64,5.98,3.1,961.18,59.775,43.431496,-96.69151,1320.65,NaN,,66.6,38.709675,273.7,18 / 22,205506,2018-06-18 23:04:13:654
-1.3056,2.934,9.4711,-0.9716,2.8088,9.3488,-0.197,0.1163,0.3362,-0.0136,0.0679,0.0146,0.0,17.65,16.45,-34.95,331.06,-16.64,5.93,3.1,961.0,59.827,43.431496,-96.69151,1320.65,NaN,,66.6,38.709675,273.7,18 / 22,206012,2018-06-18 23:04:14:160
-1.1751,2.8601,9.9143,-0.9607,2.8475,9.3383,-0.1721,0.1539,0.2581,0.0495,-0.3758,0.0386,0.0,17.05,16.6,-34.1,333.17,-16.89,5.84,3.1,961.07,59.117,43.431503,-96.69175,1319.03,NaN,,67.5,38.709675,273.4,18 / 23,206508,2018-06-18 23:04:14:656
-0.995,2.9417,9.4829,-0.968,2.8544,9.3353,0.0259,0.2067,0.1729,0.0104,0.0178,0.0117,0.0,17.65,16.2,-34.4,330.73,-16.92,5.92,3.1,961.07,58.327,43.431503,-96.69175,1319.03,NaN,,67.5,38.709675,273.4,18 / 23,207006,2018-06-18 23:04:15:154
-1.095,3.0444,9.6521,-0.986,2.883,9.3247,-0.0156,0.0665,0.3247,-0.0085,-0.0847,0.0157,0.0,17.45,16.75,-33.85,333.33,-17.0,5.94,3.1,961.01,56.902,43.43148,-96.69194,1319.35,NaN,,65.7,38.709675,271.3,18 / 23,207507,2018-06-18 23:04:15:655
-0.9597,3.0132,9.4862,-0.995,2.8635,9.3298,0.123,0.0578,-0.0585,-0.0181,-0.0905,0.0083,0.0,17.4,17.25,-34.8,333.91,-16.97,6.09,3.1,961.05,58.296,43.43148,-96.69194,1319.35,NaN,,65.7,38.709675,271.3,18 / 23,208015,2018-06-18 23:04:16:163
-1.1727,2.9538,9.7955,-1.0372,2.8459,9.3305,-0.0992,0.0076,0.088,-0.0407,-0.1044,0.0213,0.0,17.7,16.85,-35.9,332.76,-16.9,6.18,3.1,961.02,59.663,43.43143,-96.69218,1318.06,NaN,,64.8,38.709675,268.3,18 / 23,208506,2018-06-18 23:04:16:654
-1.334,2.832,9.954,-1.0599,2.8576,9.3244,-0.1729,0.0457,0.2882,0.0629,0.0365,0.0146,0.0,17.3,17.9,-34.25,334.44,-16.8,6.29,3.1,961.02,59.069,43.43143,-96.69218,1318.06,NaN,,64.8,38.709675,268.3,18 / 23,209010,2018-06-18 23:04:17:158
-0.8727,2.9601,9.6138,-1.0141,2.8634,9.3277,0.1965,0.1792,0.7209,-0.0783,0.4839,-0.0205,0.0,17.6,17.1,-34.7,332.39,-16.97,6.21,3.1,961.05,57.787,43.43148,-96.6924,1319.03,NaN,,64.8,38.709675,271.4,17 / 22,209507,2018-06-18 23:04:17:655
-0.9546,3.0321,9.5739,-1.0029,2.9086,9.315,-0.0216,-0.1036,0.062,0.0107,-0.1377,0.0218,0.0,17.5,16.6,-34.45,332.03,-17.24,6.16,3.1,961.05,62.709,43.43148,-96.6924,1319.03,NaN,,64.8,38.709675,271.4,17 / 22,210012,2018-06-18 23:04:18:160
-1.0125,2.7923,9.3623,-0.9959,2.923,9.3112,-0.0166,-0.1307,0.051,0.0376,0.122,0.0029,0.0,17.3,16.9,-35.45,334.09,-17.34,6.1,3.1,961.05,57.982,43.431465,-96.69258,1318.71,NaN,,63.0,38.709675,270.2,17 / 23,210506,2018-06-18 23:04:18:654
-0.8775,2.8537,9.1479,-0.93,2.8779,9.332,0.0525,-0.0242,-0.1841,-0.017,0.0573,0.0035,0.0,16.45,18.75,-36.1,337.03,-17.06,5.69,3.1,961.05,58.574,43.431465,-96.69258,1318.71,1422.0774916628702,,63.0,38.709675,270.2,17 / 23,211012,2018-06-18 23:04:19:160
-0.8468,2.7875,9.5138,-0.9685,2.8287,9.3433,0.1217,-0.0412,0.1705,0.0069,0.0495,-0.0067,0.0,16.65,19.55,-34.55,335.87,-16.76,5.92,3.1,961.02,58.291,43.431435,-96.69279,1318.06,1422.0774916628702,,62.1,38.709675,268.6,16 / 22,211507,2018-06-18 23:04:19:655
-0.9206,2.9652,9.5947,-0.9984,2.8456,9.3349,0.0778,0.1196,0.2599,-0.008,0.0719,0.0053,0.0,17.65,17.9,-34.5,332.56,-16.77,6.08,3.1,960.98,58.106,43.431435,-96.69279,1318.06,1422.0774916628702,,62.1,38.709675,268.6,16 / 22,212011,2018-06-18 23:04:20:159
-0.8829,2.8833,9.7214,-1.0397,2.8103,9.341,0.1569,0.073,0.3804,-0.0107,0.0309,0.0045,0.0,17.35,18.1,-34.45,334.48,-16.73,6.35,3.1,961.07,59.227,43.43142,-96.69301,1318.06,1422.0774916628702,,63.0,38.709675,267.8,16 / 23,212507,2018-06-18 23:04:20:655
-1.0879,2.6851,9.8042,-1.0391,2.8109,9.341,-0.0488,-0.1257,0.4631,0.0077,-0.065,0.0157,0.0,17.6,17.45,-34.35,331.97,-16.65,6.35,3.1,961.01,59.145,43.43142,-96.69301,1318.06,1422.0774916628702,,63.0,38.709675,267.8,16 / 23,213012,2018-06-18 23:04:21:160
-1.0285,2.9364,9.6558,-0.9829,2.8094,9.3475,-0.0457,0.1271,0.3084,-0.0192,0.0368,-3.0E-4,0.0,17.35,16.65,-35.4,333.68,-16.61,6.03,3.1,961.09,59.833,43.43143,-96.69323,1315.81,1422.0774916628702,,63.0,38.709675,269.5,16 / 23,213506,2018-06-18 23:04:21:654
-1.2243,2.6621,9.7835,-1.0097,2.7585,9.3599,-0.2147,-0.0964,0.4236,0.0064,-0.3995,0.0453,0.0,17.35,17.85,-34.8,334.5,-16.33,6.16,3.1,961.01,58.397,43.43143,-96.69323,1315.81,1422.0774916628702,,63.0,38.709675,269.5,16 / 23,214012,2018-06-18 23:04:22:160
-1.215,2.8231,9.6855,-1.1384,2.7486,9.3479,-0.0766,0.0745,0.3375,0.0583,0.0064,0.0109,0.0,17.55,18.95,-34.0,333.99,-16.19,6.89,3.1,961.01,60.105,43.431385,-96.69345,1315.81,1422.0774916628702,,63.0,38.709675,266.7,16 / 23,214507,2018-06-18 23:04:22:655
-1.1734,2.4408,8.964,-1.0766,2.7303,9.3606,-0.0968,-0.2895,-0.3967,0.0434,-0.118,0.0133,0.0,17.65,18.85,-34.15,333.62,-16.16,6.56,3.1,961.01,59.944,43.431385,-96.69345,1315.81,1422.0774916628702,,63.0,38.709675,266.7,16 / 23,215011,2018-06-18 23:04:23:159
-1.0203,2.652,9.136,-1.048,2.7103,9.3696,0.0277,-0.0582,-0.2337,0.086,0.3899,-0.0208,0.0,17.85,17.65,-34.05,332.42,-15.99,6.26,3.1,960.92,58.33,43.431385,-96.69366,1315.16,1422.0774916628702,,63.0,38.709675,267.1,16 / 23,215506,2018-06-18 23:04:23:654
-1.0343,2.6815,9.7992,-1.0579,2.6707,9.3799,0.0235,0.0108,0.4193,-0.0533,0.0083,0.0104,0.0,16.65,19.95,-35.2,336.05,-15.82,6.41,3.1,960.91,58.469,43.431385,-96.69366,1315.16,1422.0774916628702,,63.0,38.709675,267.1,16 / 23,216012,2018-06-18 23:04:24:160
-0.9279,2.9225,9.8579,-1.0784,2.6233,9.391,0.1504,0.2992,0.4669,0.0085,0.1105,-0.0091,0.0,18.0,17.6,-34.95,332.94,-15.51,6.55,3.1,960.94,57.9,43.43138,-96.69388,1313.87,1422.0774916628702,,63.0,38.709675,267.6,15 / 23,216507,2018-06-18 23:04:24:655
-1.264,2.1483,8.9616,-1.0421,2.6176,9.3966,-0.2218,-0.4693,-0.435,-0.0495,0.1997,0.0101,0.0,18.05,18.0,-34.35,332.47,-15.65,6.45,3.1,960.91,63.443,43.43138,-96.69388,1313.87,1422.0774916628702,,63.0,38.709675,267.6,15 / 23,217012,2018-06-18 23:04:25:160
-1.2559,2.3485,9.1348,-1.0933,2.5854,9.3997,-0.1626,-0.237,-0.2649,0.0021,0.0581,0.0165,0.0,18.2,17.85,-34.2,332.51,-15.28,6.63,3.1,960.91,59.692,43.431408,-96.69413,1314.84,1422.0774916628702,,64.8,41.935486,269.5,15 / 23,217506,2018-06-18 23:04:25:654
-1.1542,2.5176,9.2401,-1.0893,2.5745,9.4031,-0.065,-0.0569,-0.163,0.1228,0.216,0.0051,0.0,18.05,17.65,-34.2,332.45,-15.21,6.61,3.1,960.94,59.732,43.431408,-96.69413,1314.84,1422.0774916628702,,64.8,41.935486,269.5,15 / 23,218012,2018-06-18 23:04:26:160
-1.0023,2.6275,9.3124,-1.0101,2.6341,9.3955,0.0078,-0.0066,-0.0831,-0.0386,-0.1369,0.0296,0.0,16.6,19.4,-35.0,334.93,-15.58,6.14,3.1,961.0,58.885,43.43142,-96.69433,1313.55,1422.0774916628702,,61.2,32.258064,270.0,15 / 23,218507,2018-06-18 23:04:26:655
-1.1983,2.7392,9.7615,-1.0544,2.6438,9.3879,-0.1439,0.0954,0.3736,0.0093,0.0626,0.0075,0.0,17.0,18.0,-35.9,334.9,-15.63,6.41,3.1,960.85,57.374,43.43142,-96.69433,1313.55,1422.0774916628702,,61.2,32.258064,270.0,15 / 23,219011,2018-06-18 23:04:27:159
-1.2435,2.7713,9.9748,-1.1129,2.6603,9.3765,-0.1305,0.1111,0.5983,-0.0466,-0.0493,0.0277,0.0,17.8,17.85,-34.55,333.29,-15.73,6.77,3.1,960.91,56.534,43.43142,-96.69452,1313.55,1422.0774916628702,,61.2,35.48387,270.1,15 / 23,219508,2018-06-18 23:04:27:656
-1.1542,2.8203,9.6459,-1.0758,2.7085,9.3671,-0.0784,0.1118,0.2789,0.0535,0.0272,0.0069,0.0,17.75,16.55,-35.3,332.35,-16.03,6.55,3.1,960.88,58.006,43.43142,-96.69452,1313.55,1422.0774916628702,,61.2,35.48387,270.1,15 / 23,220010,2018-06-18 23:04:28:158
-1.2209,2.6971,9.3731,-1.0568,2.7426,9.3593,-0.1641,-0.0455,0.0138,0.0059,-0.0509,0.017,0.0,16.9,17.4,-36.8,334.85,-16.23,6.44,3.1,960.91,60.724,43.43142,-96.69473,1310.32,1422.0774916628702,,60.3,32.258064,270.2,15 / 23,220506,2018-06-18 23:04:28:654
-1.1764,2.8622,9.6715,-1.0466,2.7562,9.3564,-0.1298,0.106,0.3151,-0.0194,-0.073,0.0226,0.0,17.95,16.05,-36.85,332.31,-16.32,6.38,3.1,960.79,56.946,43.43142,-96.69473,1310.32,1422.0774916628702,,60.3,32.258064,270.2,15 / 23,221012,2018-06-18 23:04:29:160
-0.9451,2.8838,9.1982,-0.9725,2.8472,9.3371,0.0274,0.0365,-0.1389,0.0011,0.0376,-0.0011,0.0,17.85,16.8,-36.85,332.9,-16.87,5.95,3.1,960.88,55.275,43.431408,-96.69494,1309.35,1422.0774916628702,,59.4,32.258064,268.6,15 / 23,221512,2018-06-18 23:04:29:660
-0.9597,2.9858,9.4772,-0.9161,2.8571,9.3398,-0.0436,0.1287,0.1374,-0.0099,0.0261,0.0104,0.0,17.35,16.05,-36.95,333.35,-16.93,5.6,3.1,960.88,55.925,43.431408,-96.69494,1309.35,1422.0774916628702,,59.4,32.258064,268.6,15 / 23,222006,2018-06-18 23:04:30:154
-0.6833,2.914,9.0437,-0.8457,2.8757,9.3407,0.1624,0.0383,-0.297,0.0431,0.2328,-0.025,0.0,16.3,18.9,-37.25,336.8,-17.05,5.17,3.1,960.76,55.142,43.431404,-96.695145,1309.68,1422.0774916628702,,58.5,32.258064,269.2,15 / 23,222506,2018-06-18 23:04:30:654
-0.7839,2.9055,9.4412,-0.8239,2.8808,9.3412,0.04,0.0247,0.1,-0.0266,-0.0394,0.0176,0.0,16.9,17.15,-36.4,333.16,-17.08,5.04,3.1,960.82,56.894,43.431404,-96.695145,1309.68,1422.0774916628702,,58.5,32.258064,269.2,15 / 23,223006,2018-06-18 23:04:31:154
-0.7564,2.8478,9.4202,-0.8529,2.8269,9.3549,0.0965,0.021,0.0653,-0.0242,-0.0256,0.0,0.0,16.85,18.05,-34.65,333.66,-16.81,5.22,3.1,960.88,57.1,43.4314,-96.69535,1310.65,1422.0774916628702,,60.3,32.258064,269.5,15 / 23,223507,2018-06-18 23:04:31:655
-1.0926,2.7345,9.6956,-0.8648,2.845,9.3484,-0.2278,-0.1105,0.3473,-0.0221,-0.3206,0.028,0.0,16.7,17.8,-34.4,333.36,-16.86,5.28,3.1,960.91,56.368,43.4314,-96.69535,1310.65,1422.0774916628702,,60.3,32.258064,269.5,15 / 23,224011,2018-06-18 23:04:32:159
-0.674,2.8746,9.4563,-0.8764,2.8546,9.3443,0.2024,0.0201,0.112,-0.0399,-0.0799,0.0093,0.0,16.95,18.35,-34.3,333.47,-17.04,5.31,3.1,960.78,57.156,43.431408,-96.69555,1312.9,1422.0774916628702,,60.3,35.48387,269.6,15 / 23,224507,2018-06-18 23:04:32:655
-1.0381,2.6925,9.5765,-0.9194,2.7429,9.3737,-0.1187,-0.0504,0.2028,-0.0221,-0.0458,0.0104,0.0,17.2,17.3,-35.15,333.02,-16.24,5.6,3.1,960.78,55.576,43.431408,-96.69555,1312.9,1422.0774916628702,,60.3,35.48387,269.6,15 / 23,225011,2018-06-18 23:04:33:159
-1.201,2.7511,9.6275,-1.007,2.693,9.379,-0.194,0.0581,0.2485,0.1225,0.0889,-0.0011,0.0,17.15,17.45,-35.0,333.48,-15.98,6.1,3.1,960.81,56.097,43.431408,-96.695755,1309.35,1422.0774916628702,,59.4,32.258064,270.4,15 / 23,225507,2018-06-18 23:04:33:655
-1.0222,2.6992,9.814,-0.9887,2.7339,9.3692,-0.0335,-0.0347,0.4449,0.0991,0.0778,0.0184,0.0,17.65,18.4,-34.4,332.28,-16.03,6.12,3.1,960.66,57.108,43.431408,-96.695755,1309.35,1422.0774916628702,,59.4,32.258064,270.4,15 / 23,226012,2018-06-18 23:04:34:160
-1.1629,2.36,9.2395,-0.9023,2.7201,9.3819,-0.2606,-0.3602,-0.1424,0.0668,0.0924,0.0146,0.0,17.05,17.5,-34.6,333.66,-16.1,5.49,3.1,960.73,57.12,43.431416,-96.69595,1312.58,1422.0774916628702,,59.4,35.48387,270.5,15 / 23,226506,2018-06-18 23:04:34:654
-0.7034,2.7436,9.4383,-0.8558,2.673,9.3999,0.1524,0.0707,0.0385,-0.0772,-0.0818,0.0152,0.0,16.9,17.7,-34.7,333.25,-15.88,5.22,3.1,960.79,58.302,43.431416,-96.69595,1312.58,1422.0774916628702,,59.4,35.48387,270.5,15 / 23,227012,2018-06-18 23:04:35:160
-1.021,2.6893,9.1394,-0.9275,2.6537,9.3985,0.0192,0.0494,-0.1132,-0.0543,0.0128,0.0035,0.0,17.15,17.4,-34.55,332.81,-15.69,5.64,3.1,960.88,56.938,43.43142,-96.696144,1316.45,1422.0774916628702,,59.4,35.48387,270.7,15 / 23,227507,2018-06-18 23:04:35:655
-0.9049,2.7668,9.425,-0.9418,2.6832,9.3888,0.0129,-0.0121,-0.0061,-0.0149,-0.02,0.0115,0.0,17.25,17.15,-34.2,332.59,-15.87,5.73,3.1,960.88,56.723,43.43142,-96.696144,1316.45,1422.0774916628702,,59.4,35.48387,270.7,15 / 23,228012,2018-06-18 23:04:36:160
-1.0349,2.7963,9.6612,-1.0186,2.7014,9.3755,-0.0163,0.0259,0.2111,0.0668,0.0274,0.0016,0.0,17.65,17.6,-34.35,332.35,-15.98,6.2,3.1,960.85,56.195,43.43142,-96.69635,1317.74,1422.0774916628702,,58.5,38.709675,270.3,15 / 23,228507,2018-06-18 23:04:36:655
-1.0445,2.8281,9.7637,-1.052,2.6987,9.3726,-0.065,0.0727,0.3223,-0.0719,-0.0072,0.0245,0.0,18.05,17.1,-33.35,331.27,-15.97,6.4,3.1,960.83,55.779,43.43142,-96.69635,1317.74,1422.0774916628702,,58.5,38.709675,270.3,15 / 23,229006,2018-06-18 23:04:37:154
-1.1074,2.6389,9.4484,-1.0504,2.7118,9.3689,-0.057,-0.0729,0.0795,-0.0202,-0.0104,0.0051,0.0,17.7,17.65,-34.15,332.07,-15.84,6.39,3.1,960.77,58.512,43.43142,-96.69656,1317.74,1422.0774916628702,,58.5,38.709675,270.1,15 / 23,229507,2018-06-18 23:04:37:655
-0.8874,2.7317,9.9022,-0.9897,2.6926,9.3811,0.0473,0.0406,-0.0745,0.0224,-0.0248,0.0117,0.0,17.9,16.6,-35.15,331.69,-15.93,6.02,3.1,960.86,57.768,43.43142,-96.69656,1317.74,1422.0774916628702,,58.5,38.709675,270.1,15 / 23,230012,2018-06-18 23:04:38:160
-1.2033,2.693,9.6913,-1.0026,2.6878,9.3811,-0.2733,-0.1211,0.4339,0.049,-0.085,0.0272,0.0,17.9,16.85,-34.45,331.34,-15.9,6.1,3.1,960.77,58.321,43.431404,-96.696754,1318.39,1422.0774916628702,,56.7,35.48387,269.8,15 / 23,230506,2018-06-18 23:04:38:654
-0.81,2.7059,9.3543,-0.929,2.7115,9.3819,0.2434,0.2667,-0.053,0.0413,-0.2463,0.0128,0.0,16.95,17.4,-34.45,332.58,-16.05,5.65,3.1,960.74,56.479,43.431404,-96.696754,1318.39,1422.0774916628702,,56.7,35.48387,269.8,15 / 23,231012,2018-06-18 23:04:39:160
-0.9827,2.5808,9.6799,-0.9543,2.6987,9.3829,0.0647,0.084,0.3684,-0.0818,-0.1683,0.0232,1.0,17.85,17.55,-34.05,331.91,-15.97,5.81,3.1,960.78,56.302,43.431408,-96.69693,1320.65,1422.0774916628702,,55.8,35.48387,270.0,15 / 23,231507,2018-06-18 23:04:39:655
-0.6401,1.7053,10.1859,-0.8333,2.4702,9.4572,0.3361,-0.7836,0.5314,0.0783,0.0043,0.0045,0.0,16.7,20.5,-35.25,334.81,-14.58,5.04,3.1,960.78,56.917,43.431408,-96.69693,1320.65,1428.6507856361163,,55.8,35.48387,270.0,15 / 23,232010,2018-06-18 23:04:40:158
-0.248,1.3155,10.2863,-0.585,2.1991,9.5424,0.4934,-0.7616,0.7308,-0.0272,-0.2389,0.0325,0.0,16.4,20.8,-35.95,334.4,-12.95,3.51,3.1,960.8,57.154,43.43142,-96.69713,1322.58,1428.6507856361163,,55.8,35.48387,270.3,15 / 23,232507,2018-06-18 23:04:40:655
0.1721,0.8703,10.177,-0.225,1.884,9.6247,0.3075,-0.8862,0.5922,0.0194,-0.1497,0.028,0.0,16.35,17.75,-35.3,328.18,-11.07,1.34,3.1,960.76,55.363,43.43142,-96.69713,1322.58,1428.6507856361163,,55.8,35.48387,270.3,15 / 23,233012,2018-06-18 23:04:41:160
0.3775,0.7453,9.6673,0.0808,1.4424,9.703,0.1633,-0.635,0.2575,0.0352,0.0767,0.0061,0.0,16.25,17.4,-35.05,323.41,-8.46,-0.48,3.1,960.82,55.58,43.43141,-96.697296,1323.55,1428.6507856361163,,50.4,32.258064,272.3,15 / 23,233506,2018-06-18 23:04:41:654
-0.0867,1.4863,9.7582,0.148,1.2875,9.7239,0.0584,-0.3645,0.6404,0.1015,0.1369,0.0,0.0,15.8,17.6,-35.25,323.58,-7.54,-0.87,3.1,960.91,53.579,43.43141,-96.697296,1323.55,1428.6507856361163,,50.4,32.258064,272.3,15 / 23,234012,2018-06-18 23:04:42:160
-0.6766,2.3902,8.6953,-0.0945,1.8195,9.6392,-0.5821,0.5708,-0.9439,-0.0916,0.4168,-0.0053,0.0,16.5,16.95,-40.55,325.71,-10.69,0.56,3.1,960.79,56.688,43.431416,-96.69748,1326.45,1428.6507856361163,,51.3,35.48387,272.5,15 / 23,234507,2018-06-18 23:04:42:655
-0.9528,3.2089,10.6297,-0.2953,2.1471,9.5675,-0.6574,1.0617,1.0622,0.0024,0.0415,0.0,0.0,18.85,12.7,-30.65,317.37,-12.64,1.77,3.1,960.82,64.969,43.431416,-96.69748,1326.45,1428.6507856361163,,51.3,35.48387,272.5,15 / 23,235011,2018-06-18 23:04:43:159
-0.761,2.6692,9.3367,-0.2331,2.3333,9.5254,-0.528,0.3359,-0.1888,-0.0535,-0.286,0.032,0.0,12.35,20.45,-36.1,338.39,-13.76,1.4,3.1,960.7,56.938,43.431404,-96.69764,1327.42,1428.6507856361163,,50.4,38.709675,271.5,15 / 23,235507,2018-06-18 23:04:43:655
-0.7916,2.7112,10.007,-0.3218,2.3577,9.5169,-0.4697,0.3534,0.4901,0.1193,0.2455,-0.0463,0.0,12.95,21.4,-37.05,338.21,-13.91,1.94,3.1,960.73,53.534,43.431404,-96.69764,1327.42,1428.6507856361163,,50.4,38.709675,271.5,15 / 23,236006,2018-06-18 23:04:44:154
-1.1405,2.9629,8.9984,-0.5775,2.804,9.3829,-0.563,0.159,-0.3846,-0.0306,-0.0517,0.0383,0.0,14.95,12.85,-46.1,334.83,-16.61,3.52,3.1,960.79,61.717,43.43143,-96.69778,1328.39,1428.6507856361163,,47.7,38.709675,273.2,16 / 23,236506,2018-06-18 23:04:44:654
-0.9083,3.3732,9.1307,-0.7357,2.849,9.3582,-0.1726,0.5242,-0.2275,-0.0123,-3.0E-4,0.0277,0.0,16.35,16.35,-33.75,332.5,-16.88,4.5,3.1,960.88,52.634,43.43143,-96.69778,1328.39,1428.6507856361163,,47.7,38.709675,273.2,16 / 23,237012,2018-06-18 23:04:45:160
-0.9984,3.3933,9.3897,-0.7697,2.9661,9.319,-0.2287,0.4272,0.0707,-0.017,0.0312,0.0322,0.0,16.1,17.7,-33.75,334.69,-17.6,4.72,3.1,960.76,53.304,43.431423,-96.69785,1326.77,1428.6507856361163,,37.8,32.258064,272.7,16 / 23,237508,2018-06-18 23:04:45:656
-0.9787,3.416,9.3928,-0.8342,3.0426,9.2888,-0.1444,0.3735,0.104,0.0863,0.1116,0.0059,0.0,15.75,17.5,-35.0,335.71,-18.07,5.13,3.1,960.85,54.589,43.431423,-96.69785,1326.77,1428.6507856361163,,37.8,32.258064,272.7,16 / 23,238012,2018-06-18 23:04:46:160
-1.1804,3.3931,9.1707,-0.9481,3.1448,9.2437,-0.1807,0.2105,0.2102,0.0455,-0.0144,0.0178,0.0,16.15,17.75,-34.3,336.26,-18.5,5.84,3.1,960.82,53.903,43.431458,-96.69795,1325.48,1428.6507856361163,,37.8,35.48387,273.4,16 / 23,238507,2018-06-18 23:04:46:655
-1.0661,3.3747,9.3889,-0.9582,3.1818,9.23,-0.304,0.1224,0.0442,-0.0019,-0.0562,0.0192,0.0,15.75,17.9,-33.7,336.5,-18.93,5.93,3.1,960.88,54.162,43.431458,-96.69795,1325.48,1428.6507856361163,,37.8,35.48387,273.4,16 / 23,239006,2018-06-18 23:04:47:154
-1.0083,3.3849,9.4575,-0.9318,3.2333,9.2148,-0.157,0.0979,0.3609,0.0839,-0.0152,0.0264,0.0,15.5,19.15,-34.15,337.15,-19.16,5.83,3.1,960.79,54.597,43.431488,-96.69806,1326.77,1428.6507856361163,,36.9,35.48387,274.9,16 / 23,239511,2018-06-18 23:04:47:659
-0.8947,3.3424,8.8366,-0.7983,3.3231,9.1954,0.2082,0.2591,0.2073,0.0282,-0.1883,0.0045,0.0,15.15,18.3,-36.15,338.3,-19.72,5.11,3.1,960.79,56.078,43.431488,-96.69806,1326.77,1428.6507856361163,,36.9,35.48387,274.9,16 / 23,240006,2018-06-18 23:04:48:154
-0.5735,3.3472,9.1803,-0.7456,3.2487,9.2262,0.1579,-0.028,0.2573,-0.0658,-0.004,-8.0E-4,0.0,15.1,17.25,-36.35,336.95,-19.34,4.62,3.1,960.81,56.29,43.431473,-96.69823,1325.81,1428.6507856361163,,43.2,32.258064,269.5,16 / 23,240507,2018-06-18 23:04:48:655
-1.0239,2.6378,9.1848,-0.7929,3.0655,9.2849,0.1278,-0.2876,-0.2426,0.0162,0.0495,-0.0013,0.0,14.9,18.05,-36.9,337.79,-18.45,4.73,3.1,960.78,57.173,43.431473,-96.69823,1325.81,1428.6507856361163,,43.2,32.258064,269.5,16 / 23,241012,2018-06-18 23:04:49:160
-0.8773,2.7375,10.0148,-0.8216,2.9567,9.3175,-0.0557,-0.2191,0.6973,-0.0575,-0.1049,0.0301,0.0,15.4,17.9,-37.0,337.81,-17.54,5.04,3.1,960.87,55.74,43.43147,-96.69836,1329.35,1428.6507856361163,,44.1,35.48387,269.5,16 / 23,241507,2018-06-18 23:04:49:655
-0.7416,2.4751,9.4948,-0.7974,2.8818,9.3431,0.0558,-0.4067,0.1516,0.0141,-0.1142,0.0258,0.0,15.75,17.75,-36.75,335.77,-17.08,4.88,3.1,960.72,56.333,43.43147,-96.69836,1329.35,1428.6507856361163,,44.1,35.48387,269.5,16 / 23,242010,2018-06-18 23:04:50:158
-0.9531,2.8246,9.8317,-0.8525,2.8239,9.356,-0.1006,7.0E-4,0.4757,-0.0091,-0.0096,0.017,0.0,15.25,18.7,-37.4,338.36,-16.73,5.21,3.1,960.78,55.597,43.431477,-96.69852,1328.39,1428.6507856361163,,45.0,38.709675,270.3,16 / 23,242507,2018-06-18 23:04:50:655
-0.817,2.7112,9.9054,-0.8899,2.7643,9.3702,0.0729,-0.0531,0.5351,-0.0884,-0.1963,0.0551,0.0,16.1,17.6,-36.9,336.12,-16.37,5.43,3.1,960.84,55.783,43.431477,-96.69852,1328.39,1428.6507856361163,,45.0,38.709675,270.3,16 / 23,243011,2018-06-18 23:04:51:159
-0.9884,2.8239,9.9063,-0.9156,2.7474,9.3728,-0.0727,0.0765,0.5335,0.0919,0.0754,0.0024,0.0,15.8,18.8,-34.65,336.23,-16.26,5.58,3.1,960.87,56.04,43.431465,-96.69869,1329.03,1428.6507856361163,,45.9,38.709675,269.2,16 / 23,243507,2018-06-18 23:04:51:655
-0.9812,2.9546,9.3954,-0.8953,2.8112,9.3558,-0.0859,0.1434,0.0395,-0.013,-0.1358,0.0285,0.0,16.25,17.85,-34.6,335.53,-16.65,5.47,3.1,960.93,57.068,43.431465,-96.69869,1329.03,1428.6507856361163,,45.9,38.709675,269.2,16 / 23,244010,2018-06-18 23:04:52:158
-0.9718,3.0129,9.612,-0.8734,2.8378,9.3497,-0.0983,0.1751,0.2623,0.0791,0.0107,0.0,0.0,15.7,18.35,-34.35,335.06,-16.81,5.34,3.1,960.9,55.589,43.431458,-96.69887,1329.03,1428.6507856361163,,45.9,41.935486,268.2,16 / 23,244506,2018-06-18 23:04:52:654
-0.8844,3.118,9.3514,-0.8415,2.9355,9.3225,-0.0428,0.1825,0.0289,0.0394,0.0341,-0.0013,0.0,15.8,18.15,-33.7,335.1,-17.41,5.16,3.1,960.88,55.374,43.431458,-96.69887,1329.03,1428.6507856361163,,45.9,41.935486,268.2,16 / 23,245012,2018-06-18 23:04:53:160
-0.8558,3.0008,9.597,-0.8291,2.9649,9.3144,-0.0266,0.0359,0.2826,-0.0336,-0.1286,0.02,0.0,15.6,17.9,-34.0,335.05,-17.56,5.06,3.1,960.94,56.271,43.431473,-96.699036,1326.77,1428.6507856361163,,46.8,41.935486,270.6,16 / 23,245507,2018-06-18 23:04:53:655
-0.7664,3.0692,9.5596,-0.8347,2.9936,9.3047,0.0683,0.0756,0.2549,0.0013,-0.0748,0.0221,0.0,15.9,17.45,-34.35,334.43,-17.77,5.13,3.1,960.97,55.467,43.431473,-96.699036,1326.77,1428.6507856361163,,46.8,41.935486,270.6,16 / 23,246013,2018-06-18 23:04:54:161
-0.8302,3.0415,9.443,-0.8228,2.9834,9.3088,-0.0073,0.0581,0.1341,-0.0631,0.0154,0.0107,0.0,16.0,17.3,-34.4,334.29,-17.83,4.98,3.1,960.91,55.743,43.431473,-96.699165,1321.29,1428.6507856361163,,45.9,41.935486,270.6,16 / 23,246507,2018-06-18 23:04:54:655
-0.9929,3.1743,10.2821,-0.8842,3.0053,9.2963,-0.1087,0.169,0.9858,-0.0802,-0.1654,0.0288,0.0,16.1,17.3,-34.65,335.06,-17.76,5.33,3.1,961.01,56.76,43.431473,-96.699165,1321.29,1428.6507856361163,,45.9,41.935486,270.6,16 / 23,247012,2018-06-18 23:04:55:160
