ACCELEROMETER X (m/s²),ACCELEROMETER Y (m/s²),ACCELEROMETER Z (m/s²),GYROSCOPE X (rad/s),GYROSCOPE Y (rad/s),GYROSCOPE Z (rad/s),LIGHT (lux),MAGNETIC FIELD X (μT),MAGNETIC FIELD Y (μT),MAGNETIC FIELD Z (μT),ATMOSPHERIC PRESSURE (hPa),SOUND LEVEL (dB),LOCATION Latitude : ,LOCATION Longitude : ,LOCATION Altitude ( m),LOCATION Altitude-google ( m),LOCATION Altitude-atmospheric pressure ( m),LOCATION Speed ( Kmh),LOCATION Accuracy ( m),LOCATION ORIENTATION (°),Satellites in range,Time since start in ms ,YYYY-MO-DD HH-MI-SS_SSS
-0.104782,0.296533,9.944272,-0.003728,-0.007723,0.011185,49.0,-21.5,18.2,-35.3,961.08,48.97614,43.43826,-96.68995,1311.6129,NaN,,,161.29355,,2 / 26,10,2018-06-19 22:49:42:664
-0.097747,0.296683,9.944422,0.003728,-0.006658,0.010386,49.0,-21.5,18.75,-35.4,961.23,48.97614,43.43826,-96.68995,1311.6129,NaN,,,161.29355,,2 / 26,110,2018-06-19 22:49:42:764
-0.107027,0.298928,9.927956,-2.66E-4,-0.006392,0.010919,49.0,-21.25,18.8,-35.3,961.2,48.97614,43.43826,-96.68995,1311.6129,NaN,,,161.29355,,2 / 26,210,2018-06-19 22:49:42:864
-0.11047,0.291294,9.932146,0.002397,-0.006924,0.01012,48.0,-21.15,18.8,-35.35,961.23,47.64875,43.43826,-96.68995,1311.6129,NaN,,,161.29355,,2 / 26,310,2018-06-19 22:49:42:964
-0.100291,0.291893,9.934542,-5.33E-4,-0.006125,0.011452,48.0,-21.45,19.0,-35.8,961.23,47.64875,43.43826,-96.68995,1311.6129,NaN,,,161.29355,,2 / 26,410,2018-06-19 22:49:43:064
-0.10598,0.28351,9.932746,-0.003196,-0.007457,0.010386,49.0,-21.4,18.8,-35.9,961.23,47.64875,43.43826,-96.68995,1311.6129,NaN,,,161.29355,,2 / 26,509,2018-06-19 22:49:43:163
-0.098795,0.29339,9.948014,-7.99E-4,-0.007457,0.009321,47.0,-21.15,17.8,-36.25,961.23,47.64875,43.43826,-96.68995,1311.6129,NaN,,,161.29355,,2 / 26,610,2018-06-19 22:49:43:264
-0.098046,0.297731,9.938582,-2.66E-4,-0.007989,0.010653,47.0,-21.35,17.8,-36.35,961.11,47.48497,43.43826,-96.68995,1311.6129,NaN,,,161.29355,,2 / 26,709,2018-06-19 22:49:43:363
-0.095352,0.289648,9.932896,-0.001864,-0.002131,0.010653,48.0,-21.65,18.05,-36.35,961.11,47.48497,43.43826,-96.68995,1311.6129,NaN,,,161.29355,,2 / 26,810,2018-06-19 22:49:43:464
-0.109422,0.28875,9.937386,-0.009055,0.006392,0.008788,49.0,-21.35,17.95,-36.3,961.17,47.48497,43.43826,-96.68995,1311.6129,NaN,,,161.29355,,2 / 26,910,2018-06-19 22:49:43:564
-0.103734,0.371078,9.923914,-0.001332,-0.008522,-0.030626,47.0,-21.4,17.45,-36.1,961.23,47.48497,43.43826,-96.68995,1311.6129,NaN,,,161.29355,,2 / 26,1010,2018-06-19 22:49:43:664
-0.089813,0.284708,9.932296,2.66E-4,-0.008788,-0.017311,47.0,-21.7,18.3,-35.55,961.23,47.86417,43.43826,-96.68995,1311.6129,NaN,,,161.29355,,2 / 26,1110,2018-06-19 22:49:43:764
-0.085173,0.290546,9.93529,2.66E-4,-0.007723,-5.33E-4,48.0,-21.9,18.55,-35.45,961.17,47.86417,43.43826,-96.68995,1311.6129,NaN,,,161.29355,,2 / 26,1210,2018-06-19 22:49:43:864
-0.065414,0.306712,9.936936,2.66E-4,-0.007457,-5.33E-4,49.0,-21.45,17.55,-35.65,961.1,47.86417,43.43826,-96.68995,1311.6129,NaN,,,161.29355,,2 / 26,1310,2018-06-19 22:49:43:964
-0.099842,0.272583,9.944572,-0.001065,-0.007723,-0.003728,50.0,-21.7,17.3,-35.75,961.1,47.15676,43.43826,-96.68995,1311.6129,NaN,,,161.29355,,2 / 26,1411,2018-06-19 22:49:44:065
-0.085772,0.276924,9.937386,0.002131,-0.006924,-0.007191,50.0,-21.8,17.35,-35.8,961.19,47.15676,43.43826,-96.68995,1311.6129,NaN,,,161.29355,,2 / 26,1510,2018-06-19 22:49:44:164
-0.122894,0.272284,9.937834,0.0,-0.007457,-0.019441,50.0,-21.75,17.05,-35.9,961.29,47.15676,43.43826,-96.68995,1311.6129,NaN,,,161.29355,,2 / 26,1611,2018-06-19 22:49:44:265
-0.083826,0.298928,9.937386,-0.001864,-0.007723,-0.021572,50.0,-21.55,16.4,-36.35,961.29,47.15676,43.43826,-96.68995,1311.6129,NaN,,,161.29355,,2 / 26,1710,2018-06-19 22:49:44:364
-0.099543,0.286355,9.941726,-0.001598,-0.007723,-0.061519,49.0,-21.85,16.2,-36.35,961.22,48.30808,43.43826,-96.68995,1311.6129,NaN,,,161.29355,,2 / 26,1809,2018-06-19 22:49:44:463
-0.033231,0.34129,9.94502,-0.004527,-0.007723,0.001864,49.0,-21.65,16.4,-36.35,961.2,48.30808,43.43826,-96.68995,1311.6129,NaN,,,161.29355,,2 / 26,1910,2018-06-19 22:49:44:564
-0.180525,0.177681,9.941278,-0.003995,-0.003196,-0.034887,49.0,-21.5,16.1,-36.2,961.2,48.30808,43.43826,-96.68995,1311.6129,NaN,,,161.29355,,2 / 26,2010,2018-06-19 22:49:44:664
-0.230221,0.273032,9.94472,-0.018376,0.037284,-0.042611,50.0,-21.4,16.1,-36.15,961.2,47.88094,43.43826,-96.68995,1311.6129,NaN,,,161.29355,,2 / 26,2110,2018-06-19 22:49:44:764
-0.192051,0.264051,9.928104,0.041812,-0.110521,0.013848,48.0,-21.4,16.0,-36.2,961.2,47.88094,43.43826,-96.68995,1311.6129,NaN,,,161.29355,,2 / 26,2209,2018-06-19 22:49:44:863
-0.109422,0.281714,9.932446,-5.33E-4,-0.006392,0.009321,48.0,-21.6,16.25,-36.15,961.17,47.88094,43.43826,-96.68995,1311.6129,NaN,,,161.29355,,2 / 26,2309,2018-06-19 22:49:44:963
-0.097447,0.280816,9.929452,0.0,-0.014115,0.011452,49.0,-21.4,16.2,-36.1,961.17,47.88094,43.43826,-96.68995,1311.6129,NaN,,,161.29355,,2 / 26,2409,2018-06-19 22:49:45:063
-0.127834,0.281864,9.947116,0.001065,-0.018642,0.011185,48.0,-21.9,16.4,-36.15,961.17,48.10234,43.43826,-96.68995,1311.6129,NaN,,,161.29355,,2 / 26,2510,2018-06-19 22:49:45:164
-0.121098,0.276325,9.93514,-0.003462,-0.004794,0.009854,49.0,-21.9,16.55,-36.05,961.17,48.10234,43.43826,-96.68995,1311.6129,NaN,,,161.29355,,2 / 26,2609,2018-06-19 22:49:45:263
-0.00479,0.299976,9.953102,-0.001065,-0.009321,-5.33E-4,48.0,-22.25,17.2,-35.55,961.17,48.10234,43.43826,-96.68995,1311.6129,NaN,,,161.29355,,2 / 26,2709,2018-06-19 22:49:45:363
-0.121248,0.277224,9.946816,-0.001065,-0.007989,-0.037551,49.0,-22.15,17.3,-35.4,961.27,48.10234,43.43826,-96.68995,1311.6129,NaN,,,161.29355,,2 / 26,2809,2018-06-19 22:49:45:463
-0.075443,0.294887,9.944572,-0.001065,-0.008256,-0.040214,48.0,-22.45,17.65,-35.0,961.2,49.39757,43.43826,-96.68995,1311.6129,NaN,,,161.29355,,2 / 26,2910,2018-06-19 22:49:45:564
-0.095352,0.250729,9.94023,-0.002397,-0.008256,-0.042611,49.0,-22.5,17.55,-34.9,961.17,49.39757,43.43826,-96.68995,1311.6129,NaN,,,161.29355,,2 / 26,3010,2018-06-19 22:49:45:664
-0.08637,0.271236,9.93993,-2.66E-4,-0.007457,-0.014381,48.0,-22.7,17.75,-34.6,961.18,49.39757,43.43826,-96.68995,1311.6129,NaN,,,161.29355,,2 / 26,3109,2018-06-19 22:49:45:763
-0.037871,0.261057,9.948612,-0.003462,-0.007191,-0.02823,48.0,-22.8,17.55,-34.65,961.21,49.39757,43.43826,-96.68995,1311.6129,NaN,,,161.29355,,2 / 26,3210,2018-06-19 22:49:45:864
-0.090711,0.321382,9.94023,-7.99E-4,-0.007457,-0.056193,47.0,-22.95,17.35,-34.6,961.18,50.57556,43.43826,-96.68995,1311.6129,NaN,,,161.29355,,2 / 26,3310,2018-06-19 22:49:45:964
-0.101489,0.297282,9.944422,0.002131,-0.008256,-0.019441,48.0,-22.8,16.5,-34.85,961.18,50.57556,43.43826,-96.68995,1311.6129,NaN,,,161.29355,,2 / 26,3409,2018-06-19 22:49:46:063
-0.090262,0.294737,9.931698,-0.003196,-0.007989,-0.024501,46.0,-22.85,16.45,-34.75,961.15,50.57556,43.43826,-96.68995,1311.6129,NaN,,,161.29355,,2 / 26,3509,2018-06-19 22:49:46:163
-0.096549,0.296234,9.93574,-0.002397,-0.008788,-0.045274,46.0,-22.8,16.2,-34.8,961.24,50.19045,43.43826,-96.68995,1311.6129,NaN,,,161.29355,,2 / 26,3610,2018-06-19 22:49:46:264
-0.080682,0.29818,9.941726,-0.001065,-0.009055,-0.020773,45.0,-22.55,15.25,-34.8,961.15,50.19045,43.43826,-96.68995,1311.6129,NaN,,,161.29355,,2 / 26,3710,2018-06-19 22:49:46:364
-0.116458,0.334405,9.933494,-2.66E-4,-0.007457,-0.009321,46.0,-22.45,15.0,-34.75,961.27,50.19045,43.43826,-96.68995,1311.6129,NaN,,,161.29355,,2 / 26,3809,2018-06-19 22:49:46:463
-0.149539,0.275876,9.940978,-0.001864,-0.008256,0.010919,46.0,-22.5,14.4,-34.8,961.24,50.19045,43.43826,-96.68995,1311.6129,NaN,,,161.29355,,2 / 26,3910,2018-06-19 22:49:46:564
-0.107926,0.282014,9.941278,5.33E-4,-0.006125,0.011718,46.0,-22.55,14.2,-34.75,961.21,49.36421,43.43826,-96.68995,1311.6129,NaN,,,161.29355,,2 / 26,4012,2018-06-19 22:49:46:666
-0.102836,0.290995,10.020312,0.009587,-0.133691,0.017577,45.0,-22.7,13.7,-34.45,961.24,49.36421,43.43826,-96.68995,1311.6129,NaN,,,161.29355,,2 / 26,4109,2018-06-19 22:49:46:763
-0.051194,0.300276,10.168506,0.011718,-0.441818,0.023436,47.0,-22.65,13.75,-34.65,961.15,49.36421,43.43826,-96.68995,1311.6129,NaN,,,161.29355,,2 / 26,4211,2018-06-19 22:49:46:865
0.247286,0.258662,9.962084,0.005326,-0.457531,0.006924,53.0,-22.7,13.75,-34.45,961.09,49.36421,43.43826,-96.68995,1311.6129,NaN,,,161.29355,,2 / 26,4310,2018-06-19 22:49:46:964
0.913251,0.308209,9.890982,0.005859,-0.608532,0.024235,63.0,-23.35,13.8,-34.3,961.24,50.46286,43.43826,-96.68995,1311.6129,NaN,,,161.29355,,2 / 26,4410,2018-06-19 22:49:47:064
1.340762,0.323477,9.94906,0.005859,-0.721983,0.038616,61.0,-23.95,13.65,-34.15,961.24,50.46286,43.43826,-96.68995,1311.6129,NaN,,,161.29355,,2 / 26,4517,2018-06-19 22:49:47:171
2.256408,0.302671,9.524244,0.003196,-0.458863,0.019441,35.0,-25.4,13.85,-33.4,961.24,50.46286,43.43826,-96.68995,1311.6129,NaN,,,161.29355,,2 / 26,4621,2018-06-19 22:49:47:275
2.55833,0.31719,9.580528,0.009055,-0.378435,0.017577,35.0,-26.55,14.15,-32.6,961.15,50.46286,43.43826,-96.68995,1311.6129,NaN,,,161.29355,,2 / 26,4709,2018-06-19 22:49:47:363
3.257227,0.3368,9.457334,0.03036,-0.861,0.09614,35.0,-29.3,14.7,-31.1,961.24,49.37413,43.43826,-96.68995,1311.6129,NaN,,,161.29355,,2 / 26,4809,2018-06-19 22:49:47:463
3.689228,0.291743,9.1126,0.012517,-0.686563,0.03835,35.0,-30.5,14.9,-29.95,961.21,49.37413,43.43826,-96.68995,1311.6129,NaN,,,161.29355,,2 / 26,4910,2018-06-19 22:49:47:564
4.136648,0.281115,8.775802,-0.005326,-0.339287,-0.006924,34.0,-31.8,14.9,-28.95,961.15,49.37413,43.43826,-96.68995,1311.6129,NaN,,,161.29355,,2 / 26,5009,2018-06-19 22:49:47:663
4.583768,0.416733,8.795112,0.027697,-0.273507,0.072438,33.0,-34.45,16.2,-26.8,961.21,50.5927,43.43826,-96.68995,1311.6129,NaN,,,161.29355,,2 / 26,5109,2018-06-19 22:49:47:763
4.822821,0.242496,8.518486,0.02024,-0.34195,0.045007,35.0,-35.5,16.7,-25.8,961.21,50.5927,43.43826,-96.68995,1311.6129,NaN,,,161.29355,,2 / 26,5210,2018-06-19 22:49:47:864
5.390141,0.280816,8.270452,0.034355,-0.819721,0.061519,36.0,-37.5,17.55,-23.3,961.24,50.5927,43.43826,-96.68995,1311.6129,NaN,,,161.29355,,2 / 26,5310,2018-06-19 22:49:47:964
5.83786,0.343386,7.969128,0.046339,-0.811731,0.075101,37.0,-38.4,18.1,-22.15,961.21,50.5927,43.43826,-96.68995,1311.6129,NaN,,,161.29355,,2 / 26,5410,2018-06-19 22:49:48:064
6.599626,0.292641,7.280411,0.021305,-0.398675,0.033023,33.0,-40.45,19.25,-19.65,961.27,50.23691,43.43826,-96.68995,1311.6129,NaN,,,161.29355,,2 / 26,5510,2018-06-19 22:49:48:164
6.799161,0.280068,7.068751,0.001864,-0.13156,0.011984,32.0,-41.1,19.45,-18.2,961.27,50.23691,43.43826,-96.68995,1311.6129,NaN,,,161.29355,,2 / 26,5610,2018-06-19 22:49:48:264
6.906937,0.316592,7.204519,0.013848,-0.319047,0.033556,34.0,-41.9,19.75,-16.9,961.27,50.23691,43.43826,-96.68995,1311.6129,NaN,,,161.29355,,2 / 26,5709,2018-06-19 22:49:48:363
7.490424,0.266296,6.42958,0.021572,-1.075917,0.04341,34.0,-43.1,19.5,-14.0,961.24,50.23691,43.43826,-96.68995,1311.6129,NaN,,,161.29355,,2 / 26,5811,2018-06-19 22:49:48:465
7.900122,0.169448,5.400171,-0.059388,-0.433829,-0.029827,35.0,-43.9,19.6,-12.05,961.3,47.80583,43.43826,-96.68995,1311.6129,NaN,,,161.29355,,2 / 26,5909,2018-06-19 22:49:48:563
8.341704,0.260608,5.208569,-0.047671,-0.443416,-0.013049,35.0,-45.2,19.5,-8.2,961.11,47.80583,43.43826,-96.68995,1311.6129,NaN,,,161.29355,,2 / 26,6009,2018-06-19 22:49:48:663
8.534352,0.327669,5.191953,-0.007457,-0.598146,0.026898,35.0,-45.25,19.3,-6.75,961.23,47.80583,43.43826,-96.68995,1311.6129,NaN,,,161.29355,,2 / 26,6110,2018-06-19 22:49:48:764
8.963512,0.247286,4.019142,0.016245,-0.894822,0.031159,24.0,-45.95,18.65,-3.35,961.23,47.43631,43.43826,-96.68995,1311.6129,NaN,,,161.29355,,2 / 26,6211,2018-06-19 22:49:48:865
9.150024,0.239502,3.295996,-0.021572,-0.424508,-5.33E-4,11.0,-46.45,18.9,-1.25,961.17,47.43631,43.43826,-96.68995,1311.6129,NaN,,,161.29355,,2 / 26,6309,2018-06-19 22:49:48:963
9.301806,0.245789,3.299888,-0.011984,-0.556867,0.009321,3.0,-46.65,18.85,0.6,961.23,47.43631,43.43826,-96.68995,1311.6129,NaN,,,161.29355,,2 / 26,6410,2018-06-19 22:49:49:064
9.538466,0.249381,2.37556,0.020506,-1.087102,0.03542,11.0,-45.9,17.95,3.95,961.2,47.43631,43.43826,-96.68995,1311.6129,NaN,,,161.29355,,2 / 26,6510,2018-06-19 22:49:49:164
9.635762,0.236808,1.54374,0.008522,-0.727842,0.026898,13.0,-45.9,18.15,5.65,961.26,47.43631,43.43826,-96.68995,1311.6129,NaN,,,161.29355,,2 / 26,6610,2018-06-19 22:49:49:264
9.753418,0.188159,1.071023,-0.001864,-0.41279,0.014914,5.0,-45.45,18.3,10.45,961.29,50.50203,43.43826,-96.68995,1311.6129,NaN,,,161.29355,,2 / 26,6709,2018-06-19 22:49:49:363
9.768986,0.219893,0.736918,0.013582,-0.556601,0.007989,6.0,-44.9,17.95,12.3,961.37,50.50203,43.43826,-96.68995,1311.6129,NaN,,,161.29355,,1 / 26,6810,2018-06-19 22:49:49:464
9.771082,0.117356,-0.082928,-0.03835,-0.148604,0.009321,6.0,-44.1,18.25,15.75,961.19,50.50203,43.43826,-96.68995,1311.6129,NaN,,,161.29355,,1 / 26,6910,2018-06-19 22:49:49:564
9.75237,0.131277,-0.068258,5.33E-4,-0.039681,-0.001864,6.0,-43.6,18.2,17.35,961.28,47.24611,43.43826,-96.68995,1311.6129,NaN,,,161.29355,,1 / 26,7010,2018-06-19 22:49:49:664
9.787548,0.19235,-0.094304,-0.033023,0.0,0.01518,6.0,-43.6,18.35,18.85,961.16,47.24611,43.43826,-96.68995,1311.6129,NaN,,,161.29355,,1 / 26,7109,2018-06-19 22:49:49:763
9.801918,0.151635,-0.068707,0.012783,-0.034355,0.008788,6.0,-42.55,17.75,20.5,961.25,47.24611,43.43826,-96.68995,1311.6129,NaN,,,161.29355,,1 / 26,7210,2018-06-19 22:49:49:864
9.80042,0.191153,-0.066312,0.0253,-0.019974,0.009055,6.0,-42.45,17.65,20.75,961.19,47.24611,43.43826,-96.68995,1311.6129,NaN,,,161.29355,,1 / 26,7310,2018-06-19 22:49:49:964
9.802218,0.174537,-0.097298,5.33E-4,-0.038083,0.01012,6.0,-42.05,17.2,21.5,961.28,47.51033,43.43826,-96.68995,1311.6129,NaN,,,161.29355,,1 / 26,7409,2018-06-19 22:49:50:063
9.804612,0.178579,-0.139959,-0.008522,-0.018109,0.011452,6.0,-41.75,16.5,21.6,961.25,47.51033,43.43826,-96.68995,1311.6129,NaN,,,161.29355,,1 / 26,7509,2018-06-19 22:49:50:163
9.80042,0.183668,-0.122595,-0.002663,-0.0253,0.013848,6.0,-41.5,16.7,21.35,961.36,47.51033,43.43826,-96.68995,1311.6129,NaN,,,161.29355,,1 / 26,7609,2018-06-19 22:49:50:263
9.799972,0.175585,-0.159418,-0.004527,-0.019707,0.010919,6.0,-41.75,17.25,21.8,961.25,47.51419,43.43826,-96.68995,1311.6129,NaN,,,161.29355,,1 / 26,7709,2018-06-19 22:49:50:363
9.802814,0.178579,-0.163161,-0.002663,-0.003462,0.010919,6.0,-41.7,17.05,21.75,961.22,47.51419,43.43826,-96.68995,1311.6129,NaN,,,161.29355,,1 / 26,7810,2018-06-19 22:49:50:464
9.793534,0.182021,-0.16825,-0.003728,-0.014647,0.01012,6.0,-41.8,17.3,22.2,961.28,47.51419,43.43826,-96.68995,1311.6129,NaN,,,161.29355,,1 / 26,7909,2018-06-19 22:49:50:563
9.801468,0.181872,-0.167951,-0.006392,-0.015979,0.011452,6.0,-41.7,17.6,22.2,961.19,47.51419,43.43826,-96.68995,1311.6129,NaN,,,161.29355,,1 / 26,8010,2018-06-19 22:49:50:664
9.801318,0.175285,-0.192649,-0.010653,-0.022104,0.011185,6.0,-41.7,17.25,22.25,961.18,48.27246,43.43826,-96.68995,1311.6129,NaN,,,161.29355,,1 / 26,8109,2018-06-19 22:49:50:763
9.803264,0.174537,-0.21166,-0.002663,-0.015446,0.008256,6.0,-41.95,18.05,22.6,961.15,48.27246,43.43826,-96.68995,1311.6129,NaN,,,161.29355,,1 / 26,8209,2018-06-19 22:49:50:863
9.793684,0.183369,-0.216749,-0.003462,-0.013049,0.010386,6.0,-41.8,17.7,22.6,961.21,48.27246,43.43826,-96.68995,1311.6129,NaN,,,161.29355,,1 / 26,8309,2018-06-19 22:49:50:963
9.787398,0.172441,-0.198038,-0.008522,-0.023436,0.007989,6.0,-41.6,17.7,22.85,961.24,48.27246,43.43826,-96.68995,1311.6129,NaN,,,161.29355,,1 / 26,8410,2018-06-19 22:49:51:064
9.794134,0.169897,-0.2166,-0.009854,-0.022104,0.007723,6.0,-41.55,17.5,22.65,961.18,49.2585,43.43826,-96.68995,1311.6129,NaN,,,161.29355,,1 / 26,8509,2018-06-19 22:49:51:163
9.788894,0.167651,-0.258812,-0.008522,-0.031159,0.01012,6.0,-41.65,17.3,22.15,961.24,49.2585,43.43826,-96.68995,1311.6129,NaN,,,161.29355,,1 / 26,8610,2018-06-19 22:49:51:264
9.799972,0.176932,-0.284109,0.002397,-0.009854,0.009321,6.0,-41.6,17.1,22.1,961.18,49.2585,43.43826,-96.68995,1311.6129,NaN,,,161.29355,,1 / 26,8710,2018-06-19 22:49:51:364
9.793834,0.170495,-0.270488,-0.002397,-0.014115,0.011718,6.0,-41.6,16.95,21.55,961.21,49.2585,43.43826,-96.68995,1311.6129,NaN,,,161.29355,,1 / 26,8809,2018-06-19 22:49:51:463
9.798774,0.171394,-0.280367,-0.001598,-0.009321,0.011718,6.0,-41.7,17.5,21.45,961.27,48.61922,43.43826,-96.68995,1311.6129,NaN,,,161.29355,,1 / 26,8910,2018-06-19 22:49:51:564
9.803414,0.174836,-0.289199,-0.002131,-0.007191,0.014914,6.0,-42.05,18.2,21.3,961.21,48.61922,43.43826,-96.68995,1311.6129,NaN,,,161.29355,,1 / 26,9009,2018-06-19 22:49:51:663
9.804912,0.163759,-0.299527,2.66E-4,0.003196,0.008256,6.0,-41.95,18.4,21.4,961.33,48.61922,43.43826,-96.68995,1311.6129,NaN,,,161.29355,,1 / 26,9109,2018-06-19 22:49:51:763
9.799222,0.169747,-0.282014,-0.002397,0.004261,0.011185,6.0,-41.85,19.05,21.85,961.24,48.61922,43.43826,-96.68995,1311.6129,NaN,,,161.29355,,1 / 26,9209,2018-06-19 22:49:51:863
9.80057,0.174238,-0.268542,-0.003462,-0.019175,0.012783,6.0,-42.0,19.15,21.55,961.27,48.33885,43.43826,-96.68995,1311.6129,NaN,,,161.29355,,1 / 26,9309,2018-06-19 22:49:51:963
9.793534,0.175285,-0.284259,0.001065,-0.029561,0.010386,6.0,-41.95,18.7,21.5,961.18,48.33885,43.43826,-96.68995,1311.6129,NaN,,,161.29355,,1 / 26,9410,2018-06-19 22:49:52:064
9.792188,0.176034,-0.257614,7.99E-4,-0.067378,0.011718,6.0,-41.55,17.7,21.25,961.21,48.33885,43.43826,-96.68995,1311.6129,NaN,,,161.29355,,1 / 26,9509,2018-06-19 22:49:52:163
9.796378,0.174238,-0.318538,-0.002397,-0.121973,0.018109,5.0,-41.25,17.3,21.6,961.21,47.8033,43.43826,-96.68995,1311.6129,NaN,,,161.29355,,1 / 26,9610,2018-06-19 22:49:52:264
9.774674,0.156574,-0.605191,-0.007989,-0.28336,0.021572,5.0,-41.05,16.6,21.5,961.18,47.8033,43.43826,-96.68995,1311.6129,NaN,,,161.29355,,1 / 26,9710,2018-06-19 22:49:52:364
9.77647,0.169897,-0.71656,0.004527,-0.268447,0.022903,5.0,-40.95,16.9,22.1,961.21,47.8033,43.43826,-96.68995,1311.6129,NaN,,,161.29355,,1 / 26,9809,2018-06-19 22:49:52:463
9.736054,0.122595,-0.977318,0.011718,-0.177367,0.006924,5.0,-40.8,17.2,22.4,961.27,51.09378,43.43826,-96.68995,1311.6129,NaN,,,161.29355,,1 / 26,9909,2018-06-19 22:49:52:563
9.686658,0.141007,-1.291814,0.013848,-0.510528,0.033822,4.0,-40.25,17.65,23.45,961.27,51.09378,43.43826,-96.68995,1311.6129,NaN,,,161.29355,,1 / 26,10021,2018-06-19 22:49:52:675
9.623638,0.148192,-1.731749,-0.041812,-0.246609,0.02823,4.0,-40.05,18.1,24.5,961.33,51.09378,43.43826,-96.68995,1311.6129,NaN,,,161.29355,,1 / 26,10109,2018-06-19 22:49:52:763
9.578282,0.083826,-1.949696,0.012517,-0.175236,0.013848,4.0,-39.7,18.7,25.8,961.27,51.09378,43.43826,-96.68995,1311.6129,NaN,,,161.29355,,1 / 26,10210,2018-06-19 22:49:52:864
9.55059,0.077389,-2.023043,0.043143,-0.289486,0.004261,4.0,-39.1,18.6,26.6,961.27,47.56871,43.43826,-96.68995,1311.6129,NaN,,,161.29355,,1 / 26,10310,2018-06-19 22:49:52:964
9.462872,0.078736,-2.446812,0.030893,-0.316384,0.002131,3.0,-37.95,18.6,28.05,961.24,47.56871,43.43826,-96.68995,1311.6129,NaN,,,161.29355,,1 / 26,10410,2018-06-19 22:49:53:064
9.417516,0.092508,-2.669998,-0.005593,-0.206395,0.031425,1.0,-37.25,18.7,28.85,961.15,47.56871,43.43826,-96.68995,1311.6129,NaN,,,161.29355,,1 / 26,10510,2018-06-19 22:49:53:164
9.346564,0.052092,-2.791844,-0.022104,-0.176834,0.013049,1.0,-36.7,18.7,29.6,961.27,47.56871,43.43826,-96.68995,1311.6129,NaN,,,161.29355,,1 / 26,10610,2018-06-19 22:49:53:264
9.265134,0.108075,-3.083737,-0.059921,-0.376837,0.046073,1.0,-35.4,17.7,30.4,961.33,46.83298,43.43826,-96.68995,1311.6129,NaN,,,161.29355,,1 / 26,10709,2018-06-19 22:49:53:363
9.196426,0.042512,-3.330424,-0.023968,-0.257261,0.028762,0.0,-34.85,17.6,30.95,961.15,46.83298,43.43826,-96.68995,1311.6129,NaN,,,161.29355,,1 / 26,10810,2018-06-19 22:49:53:464
9.090896,0.035476,-3.602708,-0.001598,-0.147805,0.024501,0.0,-33.8,17.35,32.35,961.31,46.83298,43.43826,-96.68995,1311.6129,NaN,,,161.29355,,1 / 26,10909,2018-06-19 22:49:53:563
9.012908,0.026345,-3.639082,0.013316,-0.182959,-0.008522,4.0,-33.1,16.6,33.0,961.21,46.83298,43.43826,-96.68995,1311.6129,NaN,,,161.29355,,1 / 26,11009,2018-06-19 22:49:53:663
8.96845,0.03383,-3.76512,0.027963,-0.224504,-0.020506,0.0,-32.85,16.6,33.4,961.31,47.30864,43.43826,-96.68995,1311.6129,NaN,,,161.29355,,1 / 26,11110,2018-06-19 22:49:53:764
8.897798,0.081131,-3.959416,-0.002397,-0.191748,0.006658,0.0,-31.6,16.65,34.4,961.28,47.30864,43.43826,-96.68995,1311.6129,NaN,,,161.29355,,1 / 26,11210,2018-06-19 22:49:53:864
8.813972,0.051792,-4.115691,0.010919,-0.276702,-0.015446,0.0,-31.1,16.65,34.85,961.15,47.30864,43.43826,-96.68995,1311.6129,NaN,,,161.29355,,1 / 26,11310,2018-06-19 22:49:53:964
8.712034,0.097298,-4.434229,-0.009854,-0.070574,0.039681,0.0,-30.1,17.3,35.6,961.25,47.30864,43.43826,-96.68995,1311.6129,NaN,,,161.29355,,1 / 26,11410,2018-06-19 22:49:54:064
8.656948,0.05778,-4.410428,-0.027963,-0.092412,0.017577,3.0,-29.7,17.5,36.2,961.25,47.60587,43.43826,-96.68995,1311.6129,NaN,,,161.29355,,1 / 26,11509,2018-06-19 22:49:54:163
8.621172,0.065115,-4.551734,-0.014647,-0.074835,0.009854,3.0,-28.85,17.35,36.5,961.25,47.60587,43.43826,-96.68995,1311.6129,NaN,,,161.29355,,1 / 26,11609,2018-06-19 22:49:54:263
8.599768,0.073797,-4.599186,-0.001864,-0.053263,0.008256,3.0,-28.55,17.55,36.7,961.28,47.60587,43.43826,-96.68995,1311.6129,NaN,,,161.29355,,1 / 26,11710,2018-06-19 22:49:54:364
8.548124,0.076192,-4.688699,-0.006125,-0.069509,0.021572,3.0,-27.9,17.4,37.2,961.28,48.90224,43.43826,-96.68995,1311.6129,NaN,,,161.29355,,1 / 26,11810,2018-06-19 22:49:54:464
8.525222,0.071551,-4.723128,-0.010386,-0.050067,0.013582,3.0,-27.9,17.9,37.85,961.31,48.90224,43.43826,-96.68995,1311.6129,NaN,,,161.29355,,1 / 26,11910,2018-06-19 22:49:54:564
8.502918,0.068258,-4.747976,-0.01012,-0.030893,0.008788,3.0,-27.6,17.5,37.8,961.22,48.90224,43.43826,-96.68995,1311.6129,NaN,,,161.29355,,1 / 26,12010,2018-06-19 22:49:54:664
8.491094,0.053289,-4.773573,-7.99E-4,-0.031692,0.007723,3.0,-27.4,17.55,38.25,961.22,48.90224,43.43826,-96.68995,1311.6129,NaN,,,161.29355,,1 / 26,12109,2018-06-19 22:49:54:763
8.505314,0.085023,-4.761598,-0.006658,-0.047138,0.019175,3.0,-27.1,17.5,38.6,961.19,48.84738,43.43826,-96.68995,1311.6129,NaN,,,161.29355,,1 / 26,12209,2018-06-19 22:49:54:863
8.464448,0.065264,-4.785997,-0.007989,-0.016245,0.01012,3.0,-26.9,17.35,38.9,961.25,48.84738,43.43826,-96.68995,1311.6129,NaN,,,161.29355,,1 / 26,12309,2018-06-19 22:49:54:963
8.474628,0.08652,-4.793482,-0.015713,-0.014115,0.024501,3.0,-27.1,17.45,38.85,961.25,48.84738,43.43826,-96.68995,1311.6129,NaN,,,161.29355,,1 / 26,12410,2018-06-19 22:49:55:064
8.447234,0.076042,-4.813839,-0.001332,-0.008788,0.012517,3.0,-26.8,16.85,38.65,961.31,48.84738,43.43826,-96.68995,1311.6129,NaN,,,161.29355,,1 / 26,12510,2018-06-19 22:49:55:164
8.456366,0.082329,-4.822372,0.002929,-7.99E-4,0.004261,3.0,-26.5,16.65,38.6,961.19,47.93277,43.43826,-96.68995,1311.6129,NaN,,,161.29355,,1 / 26,12609,2018-06-19 22:49:55:263
8.462802,0.083975,-4.810846,0.006125,-0.002397,0.008256,3.0,-26.45,17.35,38.5,961.26,47.93277,43.43826,-96.68995,1311.6129,NaN,,,161.29355,,1 / 26,12710,2018-06-19 22:49:55:364
8.47328,0.075892,-4.813091,-0.001065,0.017311,0.009321,3.0,-27.3,18.35,38.35,961.19,47.93277,43.43826,-96.68995,1311.6129,NaN,,,161.29355,,1 / 19,12809,2018-06-19 22:49:55:463
8.479268,0.083377,-4.807403,0.001332,0.075367,0.008788,3.0,-27.4,18.95,38.4,961.32,48.17816,43.43826,-96.68995,1311.6129,NaN,,,161.29355,,1 / 19,12910,2018-06-19 22:49:55:564
8.552616,0.083826,-4.676874,0.012251,0.168844,0.004527,3.0,-27.6,19.7,38.6,961.23,48.17816,43.43826,-96.68995,1311.6129,NaN,,,161.29355,,1 / 19,13010,2018-06-19 22:49:55:664
8.600666,0.078886,-4.613705,0.013049,0.206928,0.003196,3.0,-27.9,19.75,38.3,961.17,48.17816,43.43826,-96.68995,1311.6129,NaN,,,161.29355,,1 / 19,13110,2018-06-19 22:49:55:764
8.68015,0.081281,-4.40953,0.022903,0.201069,0.001864,0.0,-28.35,19.85,37.95,961.17,48.17816,43.43826,-96.68995,1311.6129,NaN,,,161.29355,,1 / 19,13209,2018-06-19 22:49:55:863
8.820258,0.053139,-4.162245,0.02317,0.184291,0.021572,0.0,-28.75,19.05,37.7,961.17,48.55687,43.43826,-96.68995,1311.6129,NaN,,,161.29355,,1 / 19,13309,2018-06-19 22:49:55:963
8.856034,0.102686,-4.061953,-0.001864,0.185622,0.004261,4.0,-28.85,18.55,37.4,961.32,48.55687,43.43826,-96.68995,1311.6129,NaN,,,161.29355,,1 / 19,13409,2018-06-19 22:49:56:063
8.974438,0.098645,-3.788322,-0.006658,0.193079,0.01012,1.0,-29.5,17.55,36.85,961.29,48.55687,43.43826,-96.68995,1311.6129,NaN,,,161.29355,,1 / 19,13510,2018-06-19 22:49:56:164
9.023386,0.067959,-3.700155,0.028762,0.188019,-7.99E-4,2.0,-29.85,17.2,36.45,961.22,48.55687,43.43826,-96.68995,1311.6129,NaN,,,161.29355,,1 / 19,13609,2018-06-19 22:49:56:263
9.138946,0.055235,-3.410059,0.006125,0.22557,-0.002929,2.0,-30.65,17.45,36.0,961.22,47.34072,43.43826,-96.68995,1311.6129,NaN,,,161.29355,,1 / 19,13709,2018-06-19 22:49:56:363
9.192984,0.063169,-3.261567,0.027963,0.258859,-7.99E-4,3.0,-31.05,17.6,35.4,961.22,47.34072,43.43826,-96.68995,1311.6129,NaN,,,161.29355,,1 / 19,13809,2018-06-19 22:49:56:463
9.311836,0.08637,-2.92851,0.029827,0.226102,-0.002929,3.0,-31.75,17.9,34.75,961.22,47.34072,43.43826,-96.68995,1311.6129,NaN,,,161.29355,,1 / 19,13909,2018-06-19 22:49:56:563
9.36752,0.093855,-2.800377,0.032757,0.292681,-0.003196,3.0,-32.35,17.95,33.95,961.25,47.34072,43.43826,-96.68995,1311.6129,NaN,,,161.29355,,1 / 19,14010,2018-06-19 22:49:56:664
9.461824,0.098944,-2.410138,0.023436,0.327036,0.001598,4.0,-33.55,18.1,32.55,961.29,47.20807,43.43826,-96.68995,1311.6129,NaN,,,161.29355,,1 / 19,14110,2018-06-19 22:49:56:764
9.521102,0.083826,-2.178719,0.030094,0.327835,-0.003728,4.0,-33.85,17.85,31.9,961.22,47.20807,43.43826,-96.68995,1311.6129,NaN,,,161.29355,,1 / 19,14210,2018-06-19 22:49:56:864
9.572444,0.094903,-1.968257,0.018642,0.333161,0.004261,4.0,-34.6,18.25,31.35,961.19,47.20807,43.43826,-96.68995,1311.6129,NaN,,,161.29355,,1 / 19,14310,2018-06-19 22:49:56:964
9.663306,0.091011,-1.500929,0.045274,0.330498,-0.002663,4.0,-36.0,18.0,30.15,961.07,47.26378,43.43826,-96.68995,1311.6129,NaN,,,161.29355,,1 / 19,14409,2018-06-19 22:49:57:063
9.695938,0.123044,-1.326841,0.081226,0.331297,-0.011718,5.0,-36.8,18.05,29.15,961.17,47.26378,43.43826,-96.68995,1311.6129,NaN,,,161.29355,,1 / 19,14510,2018-06-19 22:49:57:164
9.755064,0.136815,-0.751886,0.09108,0.500408,-0.011185,5.0,-38.15,17.85,27.95,961.17,47.26378,43.43826,-96.68995,1311.6129,NaN,,,161.29355,,1 / 19,14610,2018-06-19 22:49:57:264
9.778566,0.123942,-0.391436,0.066313,0.497212,-0.012517,6.0,-38.95,17.8,26.9,961.23,47.26378,43.43826,-96.68995,1311.6129,NaN,,,161.29355,,1 / 19,14710,2018-06-19 22:49:57:364
9.79084,0.133073,0.012724,0.054861,0.470314,-0.010386,6.0,-39.85,17.65,25.6,961.23,51.00583,43.43826,-96.68995,1311.6129,NaN,,,161.29355,,1 / 19,14810,2018-06-19 22:49:57:464
9.797876,0.186662,0.594564,0.025034,0.251402,0.009587,7.0,-41.25,17.75,23.2,961.17,51.00583,43.43826,-96.68995,1311.6129,NaN,,,161.29355,,1 / 19,14910,2018-06-19 22:49:57:564
9.783356,0.195344,0.737367,0.026632,0.216515,0.007723,7.0,-42.25,18.6,21.95,961.29,51.00583,43.43826,-96.68995,1311.6129,NaN,,,161.29355,,1 / 19,15010,2018-06-19 22:49:57:664
9.750574,0.174836,1.036445,-0.003196,0.325971,2.66E-4,7.0,-43.5,20.2,19.7,961.23,51.00583,43.43826,-96.68995,1311.6129,NaN,,,161.29355,,1 / 19,15109,2018-06-19 22:49:57:763
9.713152,0.177082,1.225202,-0.008256,0.382696,0.0,7.0,-43.95,20.6,18.6,961.2,48.46141,43.43826,-96.68995,1311.6129,NaN,,,161.29355,,1 / 19,15210,2018-06-19 22:49:57:864
9.66645,0.205523,1.804498,-5.33E-4,0.267914,0.003728,8.0,-45.05,21.75,16.85,961.29,48.46141,43.43826,-96.68995,1311.6129,NaN,,,161.29355,,1 / 19,15309,2018-06-19 22:49:57:963
9.63756,0.216749,1.971101,-0.011185,0.225037,0.008256,8.0,-45.3,21.7,15.9,961.2,48.46141,43.43826,-96.68995,1311.6129,NaN,,,161.29355,,1 / 19,15410,2018-06-19 22:49:58:064
9.591604,0.211211,2.050736,-5.33E-4,0.308128,0.002131,8.0,-45.35,21.2,14.95,961.07,54.00713,43.43826,-96.68995,1311.6129,NaN,,,161.29355,,1 / 19,15510,2018-06-19 22:49:58:164
9.504186,0.229623,2.526446,-0.008256,0.248473,0.007723,10.0,-45.2,20.15,13.45,961.2,54.00713,43.43826,-96.68995,1311.6129,NaN,,,161.29355,,1 / 19,15610,2018-06-19 22:49:58:264
9.447604,0.20702,2.566114,-0.003196,0.481766,7.99E-4,15.0,-45.25,19.15,12.5,961.19,54.00713,43.43826,-96.68995,1311.6129,NaN,,,161.29355,,1 / 19,15710,2018-06-19 22:49:58:364
9.269176,0.24025,3.329676,-0.003995,0.364853,0.002929,20.0,-45.1,18.2,10.25,961.25,54.00713,43.43826,-96.68995,1311.6129,NaN,,,161.29355,,1 / 19,15809,2018-06-19 22:49:58:463
9.176668,0.241448,3.566334,-0.001065,0.353668,0.001864,33.0,-45.05,17.95,9.25,961.16,50.47969,43.43826,-96.68995,1311.6129,NaN,,,161.29355,,1 / 19,15910,2018-06-19 22:49:58:564
8.994496,0.244891,3.918252,-0.005326,0.383229,0.0,38.0,-45.15,17.95,7.05,961.22,50.47969,43.43826,-96.68995,1311.6129,NaN,,,161.29355,,1 / 19,16010,2018-06-19 22:49:58:664
8.902138,0.262105,4.167484,-0.005859,0.449275,7.99E-4,41.0,-45.1,17.5,5.75,961.19,50.47969,43.43826,-96.68995,1311.6129,NaN,,,161.29355,,1 / 19,16109,2018-06-19 22:49:58:763
8.75679,0.252375,4.500392,-0.009321,0.417317,-2.66E-4,41.0,-45.0,17.45,4.45,961.1,50.47969,43.43826,-96.68995,1311.6129,NaN,,,161.29355,,1 / 19,16210,2018-06-19 22:49:58:864
8.51639,0.267643,4.929549,-0.002397,0.328368,5.33E-4,42.0,-45.15,17.35,1.9,961.19,49.61103,43.43826,-96.68995,1311.6129,NaN,,,161.29355,,1 / 19,16310,2018-06-19 22:49:58:964
8.405472,0.268242,5.042564,0.001864,0.485228,-0.003728,41.0,-45.0,17.3,0.85,961.28,49.61103,43.43826,-96.68995,1311.6129,NaN,,,161.29355,,1 / 19,16410,2018-06-19 22:49:59:064
8.049062,0.305814,5.755082,-0.009055,0.453536,-0.003995,41.0,-45.05,17.4,-1.3,961.19,49.61103,43.43826,-96.68995,1311.6129,NaN,,,161.29355,,1 / 19,16509,2018-06-19 22:49:59:163
7.868088,0.332459,5.847141,0.023702,0.50174,0.023968,40.0,-44.9,17.45,-2.55,961.28,49.61103,43.43826,-96.68995,1311.6129,NaN,,,161.29355,,1 / 19,16609,2018-06-19 22:49:59:263
7.327263,0.275128,6.765032,-0.001598,0.448476,-5.33E-4,15.0,-44.65,17.05,-5.05,961.31,48.42134,43.43826,-96.68995,1311.6129,NaN,,,161.29355,,1 / 19,16711,2018-06-19 22:49:59:365
7.128776,0.30791,6.849008,-0.005326,0.374973,0.001598,13.0,-44.55,17.35,-6.3,961.31,48.42134,43.43826,-96.68995,1311.6129,NaN,,,161.29355,,1 / 19,16810,2018-06-19 22:49:59:464
6.908434,0.325723,6.989715,-0.006658,0.566721,-0.002397,13.0,-44.2,17.3,-7.7,961.22,48.42134,43.43826,-96.68995,1311.6129,NaN,,,161.29355,,1 / 19,16909,2018-06-19 22:49:59:563
6.428382,0.381257,7.655531,0.003995,0.24794,0.017577,11.0,-43.2,17.25,-10.2,961.25,50.70232,43.43826,-96.68995,1311.6129,NaN,,,161.29355,,1 / 19,17010,2018-06-19 22:49:59:664
6.260731,0.339494,7.498358,0.017311,0.430101,0.032757,14.0,-42.3,16.65,-11.8,961.25,50.70232,43.43826,-96.68995,1311.6129,NaN,,,161.29355,,1 / 19,17109,2018-06-19 22:49:59:763
5.657186,0.3368,8.282727,-0.014115,0.492685,-0.016778,18.0,-40.9,16.95,-14.15,961.28,50.70232,43.43826,-96.68995,1311.6129,NaN,,,161.29355,,1 / 19,17209,2018-06-19 22:49:59:863
5.454208,0.330962,8.538544,-0.009321,0.225836,0.003462,25.0,-40.35,16.9,-15.55,961.25,50.70232,43.43826,-96.68995,1311.6129,NaN,,,161.29355,,1 / 19,17310,2018-06-19 22:49:59:964
5.305418,0.348176,8.397088,-0.001332,0.103331,0.007989,27.0,-39.4,16.75,-16.5,961.28,52.63104,43.43826,-96.68995,1311.6129,NaN,,,161.29355,,1 / 19,17409,2018-06-19 22:50:00:063
5.015919,0.36539,8.434062,-0.001332,0.458863,0.006924,30.0,-38.75,17.2,-18.3,961.25,52.63104,43.43826,-96.68995,1311.6129,NaN,,,161.29355,,1 / 19,17509,2018-06-19 22:50:00:163
4.698729,0.321681,8.720416,-0.016245,0.509463,-0.024501,30.0,-38.45,17.35,-19.2,961.29,52.63104,43.43826,-96.68995,1311.6129,NaN,,,161.29355,,1 / 19,17610,2018-06-19 22:50:00:264
4.081413,0.375868,8.966654,0.006658,0.445547,0.026365,33.0,-37.75,17.15,-20.9,961.22,52.63104,43.43826,-96.68995,1311.6129,NaN,,,161.29355,,1 / 19,17711,2018-06-19 22:50:00:365
3.864514,0.33201,9.248668,-0.006658,0.311057,-0.007723,34.0,-37.4,17.7,-21.75,961.19,50.9561,43.43826,-96.68995,1311.6129,NaN,,,161.29355,,1 / 19,17809,2018-06-19 22:50:00:463
3.239713,0.390388,9.20002,-0.008522,0.672715,-0.001598,34.0,-36.35,17.85,-23.4,961.29,50.9561,43.43826,-96.68995,1311.6129,NaN,,,161.29355,,1 / 19,17910,2018-06-19 22:50:00:564
2.874772,0.359702,9.55553,-0.013316,0.588559,-0.017577,34.0,-35.3,17.8,-24.6,961.23,50.9561,43.43826,-96.68995,1311.6129,NaN,,,161.29355,,1 / 19,18011,2018-06-19 22:50:00:665
2.116299,0.361498,9.682016,-0.012783,0.545682,-0.006125,34.0,-33.35,17.55,-26.45,961.2,49.73226,43.43826,-96.68995,1311.6129,NaN,,,161.29355,,1 / 19,18110,2018-06-19 22:50:00:764
1.731749,0.341141,9.777218,-0.009587,0.617054,-0.013848,58.0,-32.5,17.65,-27.6,961.26,49.73226,43.43826,-96.68995,1311.6129,NaN,,,161.29355,,1 / 19,18210,2018-06-19 22:50:00:864
1.326092,0.332758,9.869876,-0.011452,0.541687,-0.013316,58.0,-31.25,17.35,-28.4,961.25,49.73226,43.43826,-96.68995,1311.6129,NaN,,,161.29355,,1 / 19,18310,2018-06-19 22:50:00:964
0.717159,0.32692,10.01193,-0.007457,0.266849,-0.021838,61.0,-28.7,16.8,-30.15,961.22,49.73226,43.43826,-96.68995,1311.6129,NaN,,,161.29355,,1 / 19,18409,2018-06-19 22:50:01:063
0.517324,0.372575,9.804912,-0.013316,0.416785,0.017577,53.0,-27.6,17.05,-30.55,961.31,48.39722,43.43826,-96.68995,1311.6129,NaN,,,161.29355,,1 / 19,18510,2018-06-19 22:50:01:164
-0.034877,0.299377,10.088422,-0.010919,0.056725,-0.029295,41.0,-25.7,17.0,-32.1,961.35,48.39722,43.43826,-96.68995,1311.6129,NaN,,,161.29355,,1 / 19,18609,2018-06-19 22:50:01:263
-0.037422,0.323777,9.973012,-0.007191,0.016245,-0.003728,37.0,-24.5,16.5,-32.55,961.22,48.39722,43.43826,-96.68995,1311.6129,NaN,,,161.29355,,1 / 19,18710,2018-06-19 22:50:01:364
-0.069905,0.284259,9.926758,-0.003462,0.002131,0.010919,36.0,-23.15,17.2,-33.55,961.22,48.39722,43.43826,-96.68995,1311.6129,NaN,,,161.29355,,1 / 19,18809,2018-06-19 22:50:01:463
-0.130079,0.277972,9.942326,-0.003995,-0.004794,0.012251,42.0,-22.95,17.75,-33.55,961.37,48.05268,43.43826,-96.68995,1311.6129,NaN,,,161.29355,,1 / 19,18910,2018-06-19 22:50:01:564
-0.099992,0.2886,9.944272,-0.003728,-0.005859,0.009854,45.0,-22.75,17.8,-33.75,961.25,48.05268,43.43826,-96.68995,1311.6129,NaN,,,161.29355,,1 / 19,19010,2018-06-19 22:50:01:664
-0.116308,0.289348,9.92601,-0.002131,-0.009055,0.010919,44.0,-22.45,17.7,-34.1,961.25,48.05268,43.43826,-96.68995,1311.6129,NaN,,,161.29355,,1 / 19,19110,2018-06-19 22:50:01:764
-0.070204,0.31255,9.93993,-0.029827,0.056725,-5.33E-4,46.0,-22.45,18.3,-34.2,961.25,47.79189,43.43826,-96.68995,1311.6129,NaN,,,161.29355,,1 / 19,19210,2018-06-19 22:50:01:864
-0.159119,0.311951,9.957744,-0.035686,0.06578,0.023436,47.0,-22.6,18.15,-34.0,961.22,47.79189,43.43826,-96.68995,1311.6129,NaN,,,161.29355,,1 / 19,19309,2018-06-19 22:50:01:963
-0.184416,0.144001,9.957892,-0.030094,0.206395,0.030893,45.0,-22.55,18.2,-33.95,961.22,47.79189,43.43826,-96.68995,1311.6129,NaN,,,161.29355,,1 / 19,19410,2018-06-19 22:50:02:064
-0.568817,0.173489,9.91598,0.001332,0.20027,-0.010653,42.0,-21.95,17.5,-34.5,961.19,47.79189,43.43826,-96.68995,1311.6129,NaN,,,161.29355,,1 / 19,19509,2018-06-19 22:50:02:163
-0.703088,0.176633,9.913436,-0.002131,0.329966,5.33E-4,35.0,-21.45,17.2,-34.85,961.16,47.39017,43.43826,-96.68995,1311.6129,NaN,,,161.29355,,1 / 19,19609,2018-06-19 22:50:02:263
-0.934956,0.197589,9.922566,0.003995,0.658866,-0.001332,19.0,-21.05,16.65,-35.1,961.19,47.39017,43.43826,-96.68995,1311.6129,NaN,,,161.29355,,1 / 19,19710,2018-06-19 22:50:02:364
-1.711241,0.198338,9.778566,0.014647,0.36219,-0.016245,16.0,-20.1,16.95,-36.05,961.22,47.39017,43.43826,-96.68995,1311.6129,NaN,,,161.29355,,1 / 19,19812,2018-06-19 22:50:02:466
-1.95254,0.205223,9.731564,0.002663,0.249272,-0.013848,16.0,-18.95,16.65,-36.65,961.31,47.39017,43.43826,-96.68995,1311.6129,NaN,,,161.29355,,1 / 19,19911,2018-06-19 22:50:02:565
-2.275568,0.207319,9.706566,-0.034088,0.355266,-0.013582,15.0,-17.3,16.4,-37.1,961.19,49.1761,43.43826,-96.68995,1311.6129,NaN,,,161.29355,,1 / 19,20021,2018-06-19 22:50:02:675
-2.506687,0.18292,9.62244,5.33E-4,0.415453,-0.009055,16.0,-16.35,16.8,-37.5,961.31,49.1761,43.43826,-96.68995,1311.6129,NaN,,,161.29355,,1 / 19,20110,2018-06-19 22:50:02:764
-3.129392,0.170196,9.445658,0.005326,0.539024,0.002131,15.0,-14.85,18.1,-38.15,961.25,49.1761,43.43826,-96.68995,1311.6129,NaN,,,161.29355,,1 / 19,20209,2018-06-19 22:50:02:863
-3.434308,0.204175,9.332494,-5.33E-4,0.549144,0.003995,15.0,-13.65,18.15,-38.45,961.31,49.1761,43.43826,-96.68995,1311.6129,NaN,,,161.29355,,1 / 19,20310,2018-06-19 22:50:02:964
-3.730842,0.123493,9.25241,-0.01518,0.732369,0.003462,15.0,-12.85,18.85,-38.75,961.16,49.15962,43.43826,-96.68995,1311.6129,NaN,,,161.29355,,1 / 19,20409,2018-06-19 22:50:03:063
-4.589007,0.220941,8.809332,0.006125,0.618386,-0.019974,15.0,-10.5,19.95,-39.65,961.19,49.15962,43.43826,-96.68995,1311.6129,NaN,,,161.29355,,1 / 19,20509,2018-06-19 22:50:03:163
-4.918023,0.220791,8.620724,0.017311,0.58776,-0.004794,15.0,-8.8,19.6,-39.95,961.25,49.15962,43.43826,-96.68995,1311.6129,NaN,,,161.29355,,1 / 19,20610,2018-06-19 22:50:03:264
-5.524262,0.185913,8.274793,0.025833,0.48363,0.026632,15.0,-5.25,18.4,-40.25,961.22,49.15962,43.43826,-96.68995,1311.6129,NaN,,,161.29355,,1 / 19,20709,2018-06-19 22:50:03:363
-5.845644,0.213007,8.035441,0.017843,0.561128,0.006392,16.0,-3.5,17.7,-40.8,961.22,48.60541,43.43826,-96.68995,1311.6129,NaN,,,161.29355,,1 / 19,20811,2018-06-19 22:50:03:465
-6.428981,0.27423,7.572304,-0.023968,0.63037,0.070307,15.0,-0.1,16.75,-40.4,961.21,48.60541,43.43826,-96.68995,1311.6129,NaN,,,161.29355,,1 / 19,20910,2018-06-19 22:50:03:564
-6.714886,0.144749,7.301966,0.007457,0.576042,0.011984,15.0,1.45,16.5,-40.45,961.18,48.60541,43.43826,-96.68995,1311.6129,NaN,,,161.29355,,1 / 19,21010,2018-06-19 22:50:03:664
-6.907236,0.262105,7.095395,0.021572,0.552606,0.012517,15.0,3.15,16.1,-40.1,961.24,58.38117,43.43826,-96.68995,1311.6129,NaN,,,161.29355,,1 / 19,21110,2018-06-19 22:50:03:764
-7.557334,0.170795,6.443351,-0.031425,0.74462,-0.007723,15.0,6.35,15.95,-40.05,961.24,58.38117,43.43826,-96.68995,1311.6129,NaN,,,161.29355,,1 / 19,21209,2018-06-19 22:50:03:863
-7.861501,0.215701,6.022876,-0.001332,0.592287,0.002663,14.0,8.15,15.95,-39.7,961.21,58.38117,43.43826,-96.68995,1311.6129,NaN,,,161.29355,,1 / 19,21309,2018-06-19 22:50:03:963
-8.320597,0.12978,5.381909,-0.020773,0.490821,0.02823,14.0,11.9,16.0,-38.7,961.21,58.38117,43.43826,-96.68995,1311.6129,NaN,,,161.29355,,1 / 19,21411,2018-06-19 22:50:04:065
-8.459208,0.187859,5.163962,-0.009587,0.424508,0.006392,12.0,13.95,15.65,-38.8,961.28,57.75617,43.43826,-96.68995,1311.6129,NaN,,,161.29355,,1 / 19,21509,2018-06-19 22:50:04:163
-8.75634,0.190105,4.652326,0.001598,0.422111,-0.009321,12.0,17.35,15.5,-37.75,961.21,57.75617,43.43826,-96.68995,1311.6129,NaN,,,161.29355,,1 / 19,21610,2018-06-19 22:50:04:264
-8.888366,0.157323,4.351301,-0.026898,0.613592,0.037551,11.0,18.8,15.55,-37.2,961.25,57.75617,43.43826,-96.68995,1311.6129,NaN,,,161.29355,,1 / 19,21710,2018-06-19 22:50:04:364
-9.046288,0.171244,4.002377,-0.00506,0.604804,0.014914,11.0,20.0,15.5,-36.65,961.15,57.75617,43.43826,-96.68995,1311.6129,NaN,,,161.29355,,1 / 19,21809,2018-06-19 22:50:04:463
-9.325308,0.164358,3.273842,0.021572,0.352336,0.017311,10.0,22.6,15.55,-35.25,961.25,55.52288,43.43826,-96.68995,1311.6129,NaN,,,161.29355,,1 / 19,21910,2018-06-19 22:50:04:564
-9.417216,0.181423,3.042423,0.036752,0.238619,0.025833,10.0,23.55,15.65,-34.4,961.15,55.52288,43.43826,-96.68995,1311.6129,NaN,,,161.29355,,1 / 19,22010,2018-06-19 22:50:04:664
-9.519604,0.167202,2.750231,0.021838,0.30147,-0.002663,10.0,25.65,15.15,-33.15,961.19,55.52288,43.43826,-96.68995,1311.6129,NaN,,,161.29355,,1 / 19,22109,2018-06-19 22:50:04:763
-9.558372,0.164957,2.556234,0.031159,0.32171,0.003196,10.0,26.5,14.75,-32.25,961.31,51.99092,43.43826,-96.68995,1311.6129,NaN,,,161.29355,,1 / 19,22210,2018-06-19 22:50:04:864
-9.642348,0.174088,2.143842,0.031159,0.299339,0.009854,9.0,28.1,14.95,-30.65,961.25,51.99092,43.43826,-96.68995,1311.6129,NaN,,,161.29355,,1 / 19,22309,2018-06-19 22:50:04:963
-9.68995,0.163759,1.919309,-0.050334,0.418383,0.041812,8.0,28.75,14.65,-30.0,961.28,51.99092,43.43826,-96.68995,1311.6129,NaN,,,161.29355,,1 / 19,22410,2018-06-19 22:50:05:064
-9.751472,0.139809,1.634002,-0.011984,0.504136,-0.014914,9.0,29.7,14.25,-29.55,961.22,51.99092,43.43826,-96.68995,1311.6129,NaN,,,161.29355,,1 / 19,22510,2018-06-19 22:50:05:164
-9.803712,0.22124,1.086291,0.039681,0.322509,-0.007191,8.0,31.05,14.7,-28.35,961.22,51.34259,43.43826,-96.68995,1311.6129,NaN,,,161.29355,,1 / 19,22610,2018-06-19 22:50:05:264
-9.825418,0.179477,0.856968,0.003462,0.271642,0.025034,7.0,31.45,15.35,-27.55,961.25,51.34259,43.43826,-96.68995,1311.6129,NaN,,,161.29355,,1 / 19,22709,2018-06-19 22:50:05:363
-9.837992,0.174088,0.455952,0.002131,0.246609,-0.002929,8.0,32.85,15.55,-26.05,961.22,51.34259,43.43826,-96.68995,1311.6129,NaN,,,161.29355,,1 / 19,22809,2018-06-19 22:50:05:463
-9.868228,0.174836,0.291145,0.018109,0.216781,-0.004794,7.0,33.45,16.0,-25.25,961.28,51.34259,43.43826,-96.68995,1311.6129,NaN,,,161.29355,,1 / 19,22909,2018-06-19 22:50:05:563
-9.865534,0.151186,0.006586,0.021039,0.231429,-0.046605,5.0,34.0,16.5,-23.8,961.34,52.99025,43.43826,-96.68995,1311.6129,NaN,,,161.29355,,1 / 19,23009,2018-06-19 22:50:05:663
-9.831854,0.096699,-0.162562,0.021838,0.275105,0.010919,6.0,34.4,16.35,-23.1,961.25,52.99025,43.43826,-96.68995,1311.6129,NaN,,,161.29355,,1 / 19,23110,2018-06-19 22:50:05:764
-9.842032,0.104183,-0.364043,0.031692,0.269246,0.009854,6.0,35.15,15.85,-22.5,961.25,52.99025,43.43826,-96.68995,1311.6129,NaN,,,161.29355,,1 / 19,23210,2018-06-19 22:50:05:864
-9.83889,0.08637,-0.656984,-0.009321,0.144343,-0.032224,6.0,36.15,15.2,-21.4,961.22,53.13602,43.43826,-96.68995,1311.6129,NaN,,,161.29355,,1 / 19,23310,2018-06-19 22:50:05:964
-9.796078,0.0479,-0.772394,0.00506,0.188019,0.00506,6.0,36.55,15.05,-20.9,961.22,53.13602,43.43826,-96.68995,1311.6129,NaN,,,161.29355,,1 / 19,23409,2018-06-19 22:50:06:063
-9.764794,0.035027,-1.053509,0.008788,0.241282,0.014647,7.0,37.3,14.45,-19.35,961.25,53.13602,43.43826,-96.68995,1311.6129,NaN,,,161.29355,,1 / 19,23510,2018-06-19 22:50:06:164
-9.764944,0.027094,-1.214724,-0.01518,0.199471,-0.015446,6.0,37.65,14.3,-18.65,961.22,53.13602,43.43826,-96.68995,1311.6129,NaN,,,161.29355,,1 / 19,23610,2018-06-19 22:50:06:264
-9.736352,0.02904,-1.474434,0.009055,0.19015,-0.00506,5.0,38.25,14.35,-17.35,961.28,53.17751,43.43826,-96.68995,1311.6129,NaN,,,161.29355,,1 / 19,23710,2018-06-19 22:50:06:364
-9.677974,-0.001048,-1.62053,0.024235,0.196009,0.037018,5.0,38.5,14.1,-17.0,961.25,53.17751,43.43826,-96.68995,1311.6129,NaN,,,161.29355,,1 / 19,23809,2018-06-19 22:50:06:463
-9.693692,0.02889,-1.747316,0.004261,0.112652,0.013049,5.0,38.4,14.85,-16.3,961.25,53.17751,43.43826,-96.68995,1311.6129,NaN,,,161.29355,,1 / 19,23910,2018-06-19 22:50:06:564
-9.635612,0.054786,-1.941762,-0.099336,0.489223,-0.026898,5.0,39.2,14.8,-15.7,961.28,53.17751,43.43826,-96.68995,1311.6129,NaN,,,161.29355,,1 / 19,24009,2018-06-19 22:50:06:663
-9.584568,8.98E-4,-2.148332,0.018642,0.309459,0.006392,6.0,39.45,14.7,-15.5,961.22,53.05355,43.43826,-96.68995,1311.6129,NaN,,,161.29355,,1 / 19,24110,2018-06-19 22:50:06:764
-9.489516,-0.008383,-2.487078,-0.023436,0.155795,0.031425,4.0,39.55,15.45,-14.2,961.25,53.05355,43.43826,-96.68995,1311.6129,NaN,,,161.29355,,1 / 19,24210,2018-06-19 22:50:06:864
-9.469008,-0.001198,-2.618205,-0.018376,0.134223,-0.002397,5.0,39.7,15.45,-13.55,961.31,53.05355,43.43826,-96.68995,1311.6129,NaN,,,161.29355,,1 / 19,24310,2018-06-19 22:50:06:964
-9.388926,-0.005988,-2.829865,0.015979,0.170975,0.005326,4.0,40.6,14.55,-12.4,961.31,52.35443,43.43826,-96.68995,1311.6129,NaN,,,161.29355,,1 / 19,24409,2018-06-19 22:50:07:063
-9.370064,-0.014819,-2.924019,-0.005859,0.159257,0.012517,4.0,40.55,14.8,-11.9,961.22,52.35443,43.43826,-96.68995,1311.6129,NaN,,,161.29355,,1 / 19,24509,2018-06-19 22:50:07:163
-9.33399,-0.01452,-3.036585,0.003196,0.136088,0.009587,4.0,40.75,14.75,-11.1,961.19,52.35443,43.43826,-96.68995,1311.6129,NaN,,,161.29355,,1 / 19,24609,2018-06-19 22:50:07:263
-9.265582,-0.01916,-3.216212,0.019974,0.181894,0.011718,4.0,40.9,15.05,-10.1,961.19,52.35443,43.43826,-96.68995,1311.6129,NaN,,,161.29355,,1 / 19,24709,2018-06-19 22:50:07:363
-9.205406,-0.027543,-3.35662,0.021039,0.182959,0.021039,4.0,41.4,14.45,-9.85,961.19,52.35443,43.43826,-96.68995,1311.6129,NaN,,,161.29355,,1 / 19,24809,2018-06-19 22:50:07:463
-9.129066,-0.054487,-3.567381,-0.011185,0.128098,2.66E-4,5.0,41.35,14.95,-8.95,961.1,51.64734,43.43826,-96.68995,1311.6129,NaN,,,161.29355,,1 / 19,24910,2018-06-19 22:50:07:564
-9.095534,-0.022453,-3.643872,0.001864,0.082824,0.006924,3.0,41.35,15.05,-8.6,961.19,51.64734,43.43826,-96.68995,1311.6129,NaN,,,161.29355,,1 / 19,25009,2018-06-19 22:50:07:663
-9.050628,-0.041164,-3.742667,-0.004527,0.058856,0.009854,4.0,41.45,14.75,-7.9,961.25,51.64734,43.43826,-96.68995,1311.6129,NaN,,,161.29355,,1 / 19,25109,2018-06-19 22:50:07:763
-9.038504,-0.036524,-3.780688,-0.004261,0.105727,0.009854,4.0,41.45,14.6,-7.65,961.22,51.67472,43.43826,-96.68995,1311.6129,NaN,,,161.29355,,1 / 19,25209,2018-06-19 22:50:07:863
-9.017846,-0.020507,-3.849994,0.010386,0.092944,0.011452,4.0,41.25,14.6,-7.2,961.16,51.67472,43.43826,-96.68995,1311.6129,NaN,,,161.29355,,1 / 19,25309,2018-06-19 22:50:07:963
-8.95887,-0.030836,-3.954476,0.00506,0.1012,0.012783,4.0,41.5,14.25,-6.55,961.19,51.67472,43.43826,-96.68995,1311.6129,NaN,,,161.29355,,1 / 19,25410,2018-06-19 22:50:08:064
-8.930728,-0.026345,-4.028423,0.003462,0.082824,0.009854,4.0,41.45,14.65,-6.35,961.19,51.67472,43.43826,-96.68995,1311.6129,NaN,,,161.29355,,1 / 19,25509,2018-06-19 22:50:08:163
-8.88193,-0.034279,-4.118685,0.003196,0.067378,0.013848,0.0,41.45,14.7,-5.7,961.28,52.19765,43.43826,-96.68995,1311.6129,NaN,,,161.29355,,1 / 19,25610,2018-06-19 22:50:08:264
-8.859028,-0.039069,-4.173471,0.002663,0.071905,0.013848,0.0,41.5,14.55,-5.6,961.31,52.19765,43.43826,-96.68995,1311.6129,NaN,,,161.29355,,1 / 19,25711,2018-06-19 22:50:08:365
-8.8237,-0.044458,-4.247417,-7.99E-4,0.063383,0.014381,0.0,41.65,14.45,-5.4,961.25,52.19765,43.43826,-96.68995,1311.6129,NaN,,,161.29355,,1 / 19,25809,2018-06-19 22:50:08:463
-8.802444,-0.035776,-4.286336,0.017577,0.074569,0.0253,0.0,41.9,14.65,-5.25,961.31,52.43328,43.43826,-96.68995,1311.6129,NaN,,,161.29355,,1 / 19,25910,2018-06-19 22:50:08:564
-8.784332,-0.03353,-4.349804,-0.00506,0.004527,0.006924,0.0,42.05,14.5,-4.75,961.31,52.43328,43.43826,-96.68995,1311.6129,NaN,,,161.29355,,1 / 19,26010,2018-06-19 22:50:08:664
-8.76637,-0.045954,-4.360133,0.0,0.03835,0.008522,0.0,41.95,14.3,-4.65,961.25,52.43328,43.43826,-96.68995,1311.6129,NaN,,,161.29355,,1 / 19,26109,2018-06-19 22:50:08:763
-8.753946,-0.03847,-4.376299,-5.33E-4,0.009055,0.009055,0.0,42.0,14.4,-4.55,961.22,52.43328,43.43826,-96.68995,1311.6129,NaN,,,161.29355,,1 / 19,26209,2018-06-19 22:50:08:863
-8.731792,-0.037722,-4.417913,-7.99E-4,0.039415,0.011984,0.0,42.0,14.25,-4.3,961.31,53.68723,43.43826,-96.68995,1311.6129,NaN,,,161.29355,,1 / 19,26310,2018-06-19 22:50:08:964
-8.716824,-0.041314,-4.453988,0.002663,0.029561,0.011185,0.0,42.05,14.1,-4.4,961.25,53.68723,43.43826,-96.68995,1311.6129,NaN,,,161.29355,,1 / 19,26409,2018-06-19 22:50:09:063
-8.700656,-0.030387,-4.488865,-0.003995,0.02317,0.010919,0.0,41.55,15.1,-4.1,961.16,53.68723,43.43826,-96.68995,1311.6129,NaN,,,161.29355,,1 / 19,26513,2018-06-19 22:50:09:167
-8.682394,-0.028141,-4.527185,-0.003995,-0.003462,0.008522,0.0,41.6,15.8,-4.0,961.29,53.68723,43.43826,-96.68995,1311.6129,NaN,,,161.29355,,1 / 19,26609,2018-06-19 22:50:09:263
-8.687184,-0.037123,-4.523294,-0.004527,-0.030094,0.004527,0.0,41.45,15.55,-3.9,961.19,54.02811,43.43826,-96.68995,1311.6129,NaN,,,161.29355,,1 / 19,26709,2018-06-19 22:50:09:363
-8.69901,-0.030986,-4.48647,-0.004794,-0.076965,0.006924,0.0,41.05,16.65,-3.8,961.22,54.02811,43.43826,-96.68995,1311.6129,NaN,,,161.29355,,1 / 19,26810,2018-06-19 22:50:09:464
-8.714578,-0.041164,-4.445904,-0.002397,-0.072438,0.008788,0.0,41.0,16.7,-3.7,961.22,54.02811,43.43826,-96.68995,1311.6129,NaN,,,161.29355,,1 / 19,26910,2018-06-19 22:50:09:564
-8.765622,-0.041314,-4.379442,-0.009321,-0.055926,0.009321,0.0,41.2,16.35,-3.55,961.22,54.60718,43.43826,-96.68995,1311.6129,NaN,,,161.29355,,1 / 19,27009,2018-06-19 22:50:09:663
-8.774302,-0.046404,-4.353098,0.005859,-0.112119,0.01012,0.0,41.2,16.3,-3.6,961.22,54.60718,43.43826,-96.68995,1311.6129,NaN,,,161.29355,,1 / 19,27110,2018-06-19 22:50:09:764
-8.839418,-0.037722,-4.211791,0.070307,-0.20027,0.034355,0.0,41.6,15.6,-4.2,961.19,54.60718,43.43826,-96.68995,1311.6129,NaN,,,161.29355,,1 / 19,27210,2018-06-19 22:50:09:864
-8.921148,-0.039817,-4.028722,0.004794,-0.160855,0.013316,4.0,41.8,15.35,-4.45,961.19,54.60718,43.43826,-96.68995,1311.6129,NaN,,,161.29355,,1 / 19,27310,2018-06-19 22:50:09:964
-8.950188,-0.049846,-3.98142,0.022371,-0.150469,0.0253,4.0,42.05,15.0,-4.5,961.28,54.4093,43.43826,-96.68995,1311.6129,NaN,,,161.29355,,1 / 19,27410,2018-06-19 22:50:10:064
-9.04524,-0.04805,-3.739524,0.017577,-0.316384,0.024235,4.0,42.0,14.8,-5.3,961.28,54.4093,43.43826,-96.68995,1311.6129,NaN,,,161.29355,,1 / 19,27509,2018-06-19 22:50:10:163
-9.147628,-0.06721,-3.547922,-0.026898,-0.418383,-0.010653,4.0,42.1,14.75,-5.75,961.35,54.4093,43.43826,-96.68995,1311.6129,NaN,,,161.29355,,1 / 19,27610,2018-06-19 22:50:10:264
-9.303304,-0.040416,-3.107687,0.003995,-0.423443,0.013848,4.0,42.05,14.75,-6.8,961.1,54.4093,43.43826,-96.68995,1311.6129,NaN,,,161.29355,,1 / 19,27709,2018-06-19 22:50:10:363
-9.385332,-0.03847,-2.850822,0.006924,-0.517718,0.011984,4.0,41.95,14.6,-7.45,961.25,52.91619,43.43826,-96.68995,1311.6129,NaN,,,161.29355,,1 / 19,27810,2018-06-19 22:50:10:464
-9.567054,-0.042063,-2.177222,0.008522,-0.599211,0.015713,6.0,41.35,15.0,-8.8,961.16,52.91619,43.43826,-96.68995,1311.6129,NaN,,,161.29355,,1 / 19,27909,2018-06-19 22:50:10:563
-9.658066,-0.044607,-1.786684,0.008256,-0.664725,0.013848,5.0,41.25,15.05,-10.05,961.22,52.91619,43.43826,-96.68995,1311.6129,NaN,,,161.29355,,1 / 19,28010,2018-06-19 22:50:10:664
-9.741292,-0.033381,-1.344654,0.013582,-0.745951,0.014381,6.0,40.75,15.45,-11.05,961.29,52.91619,43.43826,-96.68995,1311.6129,NaN,,,161.29355,,1 / 19,28109,2018-06-19 22:50:10:763
-9.829608,-0.040266,-0.294737,-0.015713,-0.71639,0.014115,6.0,39.55,15.4,-13.85,961.25,50.7011,43.43826,-96.68995,1311.6129,NaN,,,161.29355,,1 / 19,28210,2018-06-19 22:50:10:864
-9.860594,-0.031734,0.197439,-0.009055,-0.654605,0.006392,8.0,39.15,14.9,-15.4,961.19,50.7011,43.43826,-96.68995,1311.6129,NaN,,,161.29355,,1 / 19,28309,2018-06-19 22:50:10:963
-9.811946,-0.031285,0.963696,-0.0253,-0.494549,0.011452,7.0,37.65,15.2,-18.4,961.19,50.7011,43.43826,-96.68995,1311.6129,NaN,,,161.29355,,1 / 19,28409,2018-06-19 22:50:11:063
-9.798474,-0.037572,1.309327,-0.014115,-0.553405,0.013582,8.0,36.85,14.75,-20.4,961.07,50.7011,43.43826,-96.68995,1311.6129,NaN,,,161.29355,,1 / 19,28510,2018-06-19 22:50:11:164
-9.66046,-0.039967,2.109563,0.013848,-0.516653,0.015446,8.0,35.1,14.25,-23.6,961.07,50.88809,43.43826,-96.68995,1311.6129,NaN,,,161.29355,,1 / 19,28609,2018-06-19 22:50:11:263
-9.582024,-0.025597,2.434687,0.024767,-0.519849,0.008522,9.0,33.9,14.45,-25.3,961.26,50.88809,43.43826,-96.68995,1311.6129,NaN,,,161.29355,,1 / 19,28710,2018-06-19 22:50:11:364
-9.494306,-0.020956,2.783312,0.031692,-0.491353,0.009587,10.0,32.9,14.65,-26.7,961.17,50.88809,43.43826,-96.68995,1311.6129,NaN,,,161.29355,,1 / 19,28810,2018-06-19 22:50:11:464
-9.272318,-0.008682,3.429219,0.001598,-0.527572,0.021039,10.0,30.8,14.25,-29.3,961.2,50.71948,43.43826,-96.68995,1311.6129,NaN,,,161.29355,,1 / 19,28910,2018-06-19 22:50:11:564
-9.146878,-0.001048,3.768414,0.006125,-0.50893,0.014647,11.0,29.3,15.0,-30.35,961.26,50.71948,43.43826,-96.68995,1311.6129,NaN,,,161.29355,,1 / 19,29009,2018-06-19 22:50:11:663
-8.867708,0.010029,4.39052,0.014381,-0.535562,0.009587,11.0,26.65,15.6,-32.25,961.26,50.71948,43.43826,-96.68995,1311.6129,NaN,,,161.29355,,1 / 19,29110,2018-06-19 22:50:11:764
-8.715026,0.010179,4.731062,0.003728,-0.561927,0.011718,12.0,25.4,15.65,-33.3,961.2,50.71948,43.43826,-96.68995,1311.6129,NaN,,,161.29355,,1 / 19,29209,2018-06-19 22:50:11:863
-8.52552,0.010329,5.054539,0.008256,-0.599478,0.013049,12.0,24.25,15.7,-33.85,961.2,51.21822,43.43826,-96.68995,1311.6129,NaN,,,161.29355,,1 / 19,29310,2018-06-19 22:50:11:964
-8.046667,0.023202,5.796247,-0.009854,-0.818656,0.016512,14.0,21.4,16.3,-35.35,961.17,51.21822,43.43826,-96.68995,1311.6129,NaN,,,161.29355,,1 / 19,29410,2018-06-19 22:50:12:064
-7.738757,0.015568,6.235583,0.005859,-0.768322,-2.66E-4,15.0,20.05,16.1,-36.15,961.11,51.21822,43.43826,-96.68995,1311.6129,NaN,,,161.29355,,1 / 19,29509,2018-06-19 22:50:12:163
-7.060068,0.035476,6.985524,0.035686,-0.742756,-0.025566,15.0,17.25,15.45,-37.6,961.08,53.18671,43.43826,-96.68995,1311.6129,NaN,,,161.29355,,1 / 19,29609,2018-06-19 22:50:12:263
-6.696325,0.022304,7.363787,0.046605,-0.518784,-0.037018,15.0,15.3,15.2,-38.55,961.08,53.18671,43.43826,-96.68995,1311.6129,NaN,,,161.29355,,1 / 19,29710,2018-06-19 22:50:12:364
-6.152206,0.054786,7.754774,0.063383,-0.552073,-0.026365,15.0,11.6,15.25,-39.8,961.23,53.18671,43.43826,-96.68995,1311.6129,NaN,,,161.29355,,1 / 19,29809,2018-06-19 22:50:12:463
-5.838309,0.108824,7.999515,0.045007,-0.851679,-0.024767,15.0,10.05,15.0,-40.2,961.17,53.18671,43.43826,-96.68995,1311.6129,NaN,,,161.29355,,1 / 19,29910,2018-06-19 22:50:12:564
-4.829557,0.01901,8.733738,0.029028,-1.034904,0.010386,12.0,5.5,16.05,-40.45,961.23,55.3579,43.43826,-96.68995,1311.6129,NaN,,,161.29355,,1 / 19,30011,2018-06-19 22:50:12:665
-4.186195,0.102836,9.089998,0.022637,-0.357663,0.008788,14.0,3.15,16.5,-40.5,961.17,55.3579,43.43826,-96.68995,1311.6129,NaN,,,161.29355,,1 / 19,30109,2018-06-19 22:50:12:763
-3.839665,0.170046,9.141192,-0.005593,-0.449275,0.046339,13.0,0.85,16.45,-40.65,961.26,55.3579,43.43826,-96.68995,1311.6129,NaN,,,161.29355,,1 / 19,30210,2018-06-19 22:50:12:864
-3.171006,0.093855,9.495954,0.017044,-0.419714,0.001864,16.0,-3.5,17.15,-40.4,961.2,55.3579,43.43826,-96.68995,1311.6129,NaN,,,161.29355,,1 / 19,30309,2018-06-19 22:50:12:963
-2.821932,0.172741,9.554332,0.013316,-0.224238,-0.04048,15.0,-5.7,17.4,-39.95,961.2,49.23789,43.43826,-96.68995,1311.6129,NaN,,,161.29355,,1 / 19,30409,2018-06-19 22:50:13:063
-2.402354,0.214504,9.65672,0.003995,-0.390419,-0.025833,16.0,-9.6,16.95,-39.65,961.2,49.23789,43.43826,-96.68995,1311.6129,NaN,,,161.29355,,1 / 19,30510,2018-06-19 22:50:13:164
-2.120041,0.193548,9.68082,0.017577,-0.629305,-0.013848,19.0,-11.2,16.6,-39.75,961.2,49.23789,43.43826,-96.68995,1311.6129,NaN,,,161.29355,,1 / 19,30610,2018-06-19 22:50:13:264
-1.588347,0.168699,9.81015,0.017311,-0.218912,-0.018109,21.0,-13.9,16.15,-39.1,961.2,49.23789,43.43826,-96.68995,1311.6129,NaN,,,161.29355,,1 / 19,30710,2018-06-19 22:50:13:364
-1.303489,0.212109,9.847274,0.034621,-0.401072,-0.017044,21.0,-15.45,16.3,-38.6,961.23,48.85384,43.43826,-96.68995,1311.6129,NaN,,,161.29355,,1 / 19,30810,2018-06-19 22:50:13:464
-1.096769,0.238005,9.895922,0.003728,-0.297209,0.008256,36.0,-16.2,15.45,-38.3,961.23,48.85384,43.43826,-96.68995,1311.6129,NaN,,,161.29355,,1 / 19,30909,2018-06-19 22:50:13:563
-0.657582,0.222437,9.924064,-0.001864,-0.224238,0.025034,40.0,-17.95,14.7,-37.65,961.2,48.85384,43.43826,-96.68995,1311.6129,NaN,,,161.29355,,1 / 19,31009,2018-06-19 22:50:13:663
-0.549507,0.26465,9.931398,5.33E-4,-0.249805,-0.01518,46.0,-18.75,14.9,-37.25,961.23,48.16442,43.43826,-96.68995,1311.6129,NaN,,,161.29355,,1 / 19,31110,2018-06-19 22:50:13:764
-0.316891,0.237257,9.923016,0.005326,-0.18722,0.005326,46.0,-20.05,13.75,-36.45,961.23,48.16442,43.43826,-96.68995,1311.6129,NaN,,,161.29355,,1 / 19,31209,2018-06-19 22:50:13:863
-0.214654,0.231269,9.930948,0.018109,-0.071373,-0.019175,44.0,-20.65,14.0,-35.95,961.11,48.16442,43.43826,-96.68995,1311.6129,NaN,,,161.29355,,1 / 19,31310,2018-06-19 22:50:13:964
-0.101788,0.310155,9.944272,0.009854,-0.036752,0.051399,44.0,-21.0,13.6,-35.95,961.29,48.16442,43.43826,-96.68995,1311.6129,NaN,,,161.29355,,1 / 19,31410,2018-06-19 22:50:14:064
-0.199535,0.251028,9.932446,0.018376,-0.056992,-0.034355,45.0,-21.9,13.6,-35.45,961.17,49.28035,43.43826,-96.68995,1311.6129,NaN,,,161.29355,,1 / 19,31509,2018-06-19 22:50:14:163
-0.135169,0.277373,9.940978,7.99E-4,-0.007989,0.009854,45.0,-22.1,13.45,-35.45,961.08,49.28035,43.43826,-96.68995,1311.6129,NaN,,,161.29355,,1 / 19,31610,2018-06-19 22:50:14:264
-0.112267,0.276176,9.931098,0.001332,-0.007989,0.010919,45.0,-22.8,14.25,-35.05,961.29,49.28035,43.43826,-96.68995,1311.6129,NaN,,,161.29355,,1 / 19,31709,2018-06-19 22:50:14:363
-0.097148,0.299228,9.93993,0.001065,-0.011452,0.006392,45.0,-23.0,14.4,-35.1,961.17,49.28035,43.43826,-96.68995,1311.6129,NaN,,,161.29355,,1 / 19,31810,2018-06-19 22:50:14:464
-0.074246,0.269739,9.922716,-5.33E-4,-0.008522,-0.005326,45.0,-23.1,14.6,-35.1,961.17,48.72789,43.43826,-96.68995,1311.6129,NaN,,,161.29355,,1 / 19,31910,2018-06-19 22:50:14:564
-0.141456,0.321232,9.942624,-7.99E-4,-0.005859,0.011984,44.0,-23.2,14.7,-35.0,961.24,48.72789,43.43826,-96.68995,1311.6129,NaN,,,161.29355,,1 / 19,32010,2018-06-19 22:50:14:664
-0.097597,0.278421,9.956844,0.0,-0.007457,0.041279,44.0,-23.35,14.65,-34.9,961.17,48.72789,43.43826,-96.68995,1311.6129,NaN,,,161.29355,,1 / 19,32110,2018-06-19 22:50:14:764
-0.085323,0.301623,9.928404,0.003728,-0.005859,0.04554,44.0,-23.1,13.9,-35.0,961.18,49.38555,43.43826,-96.68995,1311.6129,NaN,,,161.29355,,1 / 19,32209,2018-06-19 22:50:14:863
-0.113015,0.276625,9.93993,0.009055,-0.007191,0.052464,45.0,-23.5,14.15,-34.75,961.21,49.38555,43.43826,-96.68995,1311.6129,NaN,,,161.29355,,1 / 19,32309,2018-06-19 22:50:14:963
-0.094154,0.328567,9.942924,0.131826,5.33E-4,0.029028,45.0,-23.4,13.65,-34.8,961.08,49.38555,43.43826,-96.68995,1311.6129,NaN,,,161.29355,,1 / 19,32410,2018-06-19 22:50:15:064
-0.095651,0.510888,9.963132,0.447145,0.005593,-0.022637,51.0,-23.4,13.65,-35.05,961.27,49.38555,43.43826,-96.68995,1311.6129,NaN,,,161.29355,,1 / 19,32510,2018-06-19 22:50:15:164
-0.084125,0.962648,9.912238,0.296144,0.027164,0.055127,51.0,-23.2,13.2,-35.1,961.15,57.04825,43.43826,-96.68995,1311.6129,NaN,,,161.29355,,1 / 19,32609,2018-06-19 22:50:15:263
-0.209564,1.028811,9.863888,0.137419,-0.003196,0.006924,50.0,-23.1,12.9,-35.25,961.27,57.04825,43.43826,-96.68995,1311.6129,NaN,,,161.29355,,1 / 19,32709,2018-06-19 22:50:15:363
-0.099992,1.541495,9.8347,0.296676,-0.005593,0.017311,56.0,-22.85,11.65,-35.85,961.21,57.04825,43.43826,-96.68995,1311.6129,NaN,,,161.29355,,1 / 19,32810,2018-06-19 22:50:15:464
-0.166005,1.744323,9.791588,0.346477,-0.029028,0.081493,66.0,-22.9,11.2,-35.95,961.24,57.04825,43.43826,-96.68995,1311.6129,NaN,,,161.29355,,1 / 19,32909,2018-06-19 22:50:15:563
-0.104333,1.994003,9.768088,0.435693,-0.021838,0.07377,65.0,-23.05,10.9,-35.75,961.18,53.68589,43.43826,-96.68995,1311.6129,NaN,,,161.29355,,1 / 19,33009,2018-06-19 22:50:15:663
-0.050295,2.479444,9.67977,0.416252,-0.032757,0.019175,67.0,-23.15,8.95,-35.85,961.31,53.68589,43.43826,-96.68995,1311.6129,NaN,,,161.29355,,1 / 19,33109,2018-06-19 22:50:15:763
-0.013622,2.826722,9.600586,0.454069,-0.132625,-0.023169,72.0,-23.4,8.3,-35.95,961.21,53.68589,43.43826,-96.68995,1311.6129,NaN,,,161.29355,,1 / 19,33210,2018-06-19 22:50:15:864
0.150138,3.488196,9.399404,0.580036,-0.324639,-0.030094,66.0,-23.7,6.35,-36.35,961.15,53.68589,43.43826,-96.68995,1311.6129,NaN,,,161.29355,,1 / 19,33309,2018-06-19 22:50:15:963
0.301024,3.789071,9.09883,0.466586,-0.15473,-5.33E-4,59.0,-23.95,5.35,-36.0,961.21,56.89559,43.43826,-96.68995,1311.6129,NaN,,,161.29355,,1 / 19,33409,2018-06-19 22:50:16:063
0.29818,4.368216,8.883576,0.394947,0.229298,0.016512,29.0,-24.1,2.0,-36.2,961.21,56.89559,43.43826,-96.68995,1311.6129,NaN,,,161.29355,,1 / 19,33510,2018-06-19 22:50:16:164
0.165705,4.61655,8.882678,0.409062,0.138751,-0.011984,53.0,-24.25,0.75,-36.2,961.25,56.89559,43.43826,-96.68995,1311.6129,NaN,,,161.29355,,1 / 19,33609,2018-06-19 22:50:16:263
0.095352,4.916526,8.706346,0.387224,0.139283,0.010653,53.0,-24.15,-0.7,-36.15,961.19,56.89559,43.43826,-96.68995,1311.6129,NaN,,,161.29355,,1 / 19,33710,2018-06-19 22:50:16:364
-0.10583,5.24659,8.504564,0.362723,0.12943,0.018908,47.0,-23.8,-3.55,-36.45,961.22,51.69567,43.43826,-96.68995,1311.6129,NaN,,,161.29355,,1 / 19,33809,2018-06-19 22:50:16:463
-0.163011,5.519472,8.350236,0.578439,0.023702,-0.072704,50.0,-23.5,-4.6,-36.2,961.22,51.69567,43.43826,-96.68995,1311.6129,NaN,,,161.29355,,1 / 19,33910,2018-06-19 22:50:16:564
-0.271236,5.971383,7.953561,0.25593,-0.29641,0.014381,59.0,-22.9,-7.15,-36.8,961.25,51.69567,43.43826,-96.68995,1311.6129,NaN,,,161.29355,,1 / 19,34010,2018-06-19 22:50:16:664
-0.187261,6.105654,7.780521,0.360858,0.023436,-0.033822,76.0,-22.65,-8.0,-36.75,961.22,50.55924,43.43826,-96.68995,1311.6129,NaN,,,161.29355,,1 / 19,34109,2018-06-19 22:50:16:763
-0.197888,6.651418,7.503297,0.256196,0.148604,-0.019441,79.0,-22.35,-10.15,-36.15,961.22,50.55924,43.43826,-96.68995,1311.6129,NaN,,,161.29355,,1 / 19,34209,2018-06-19 22:50:16:863
-0.21181,6.768326,7.410789,0.263653,0.336624,-0.057791,86.0,-22.2,-11.25,-35.6,961.25,50.55924,43.43826,-96.68995,1311.6129,NaN,,,161.29355,,1 / 19,34310,2018-06-19 22:50:16:964
-0.384999,6.781648,7.223678,0.539024,-0.072971,-0.056992,88.0,-21.9,-12.45,-35.1,961.28,50.55924,43.43826,-96.68995,1311.6129,NaN,,,161.29355,,1 / 19,34410,2018-06-19 22:50:17:064
-0.727337,7.275172,6.880892,0.419714,-0.123571,0.03542,199.0,-21.25,-15.0,-34.6,961.16,56.70285,43.43826,-96.68995,1311.6129,NaN,,,161.29355,,1 / 19,34509,2018-06-19 22:50:17:163
-0.571661,7.49237,6.501131,0.472178,-0.081226,0.031958,179.0,-20.9,-16.25,-34.2,961.19,56.70285,43.43826,-96.68995,1311.6129,NaN,,,161.29355,,1 / 19,34612,2018-06-19 22:50:17:266
-0.536634,7.85761,5.954318,0.597347,0.080427,0.018376,126.0,-20.25,-18.35,-33.35,961.16,56.70285,43.43826,-96.68995,1311.6129,NaN,,,161.29355,,1 / 19,34710,2018-06-19 22:50:17:364
-0.599054,8.118219,5.672454,0.630637,0.110788,-0.015446,45.0,-20.0,-19.7,-33.05,961.19,56.31461,43.43826,-96.68995,1311.6129,NaN,,,161.29355,,1 / 19,34810,2018-06-19 22:50:17:464
-0.679587,8.433762,5.344786,0.676709,0.096939,-0.099336,15.0,-19.8,-21.1,-32.85,961.16,56.31461,43.43826,-96.68995,1311.6129,NaN,,,161.29355,,1 / 19,34910,2018-06-19 22:50:17:564
-0.678988,8.792716,4.743336,0.537959,0.153398,0.034088,15.0,-19.3,-23.9,-31.7,961.19,56.31461,43.43826,-96.68995,1311.6129,NaN,,,161.29355,,1 / 19,35010,2018-06-19 22:50:17:664
-0.722398,8.77625,4.294121,0.384294,0.054861,0.19734,13.0,-19.05,-25.1,-30.85,961.19,56.31461,43.43826,-96.68995,1311.6129,NaN,,,161.29355,,1 / 19,35109,2018-06-19 22:50:17:763
-0.645607,9.110954,3.899242,0.340086,0.04554,0.166714,13.0,-18.4,-27.4,-28.95,961.22,45.95055,43.43826,-96.68995,1311.6129,NaN,,,161.29355,,1 / 19,35209,2018-06-19 22:50:17:863
-0.611478,9.469758,3.83263,0.412257,-0.086819,0.173372,11.0,-18.3,-28.8,-28.6,961.1,45.95055,43.43826,-96.68995,1311.6129,NaN,,,161.29355,,1 / 19,35309,2018-06-19 22:50:17:963
-0.438289,9.46392,3.293152,0.252468,-0.150735,0.217048,11.0,-18.05,-30.35,-26.7,961.19,45.95055,43.43826,-96.68995,1311.6129,NaN,,,161.29355,,1 / 19,35410,2018-06-19 22:50:18:064
-0.315544,9.391172,2.966082,0.358195,0.030094,0.175769,11.0,-17.95,-30.95,-25.75,961.19,45.95055,43.43826,-96.68995,1311.6129,NaN,,,161.29355,,1 / 19,35511,2018-06-19 22:50:18:165
-0.105531,9.477242,2.711611,0.193878,0.019175,0.125701,11.0,-18.5,-31.85,-24.4,961.25,47.13289,43.43826,-96.68995,1311.6129,NaN,,,161.29355,,1 / 19,35610,2018-06-19 22:50:18:264
0.059426,9.741892,2.699936,0.392017,0.054328,0.056459,11.0,-19.0,-32.25,-23.85,961.25,47.13289,43.43826,-96.68995,1311.6129,NaN,,,161.29355,,1 / 19,35710,2018-06-19 22:50:18:364
0.017065,9.741592,2.376309,0.581368,0.073237,0.126766,11.0,-19.25,-32.75,-23.1,961.23,47.13289,43.43826,-96.68995,1311.6129,NaN,,,161.29355,,1 / 19,35810,2018-06-19 22:50:18:464
0.171693,9.783356,1.677711,0.198938,-0.004527,-0.002397,9.0,-19.8,-33.6,-21.55,961.2,47.13289,43.43826,-96.68995,1311.6129,NaN,,,161.29355,,1 / 19,35910,2018-06-19 22:50:18:564
0.099543,9.82437,1.566942,0.2783,0.011185,-0.025833,10.0,-19.95,-34.0,-21.0,961.23,51.85146,43.43826,-96.68995,1311.6129,NaN,,,161.29355,,1 / 19,36009,2018-06-19 22:50:18:663
0.022304,9.880504,1.269061,0.314786,-0.12943,-0.012251,9.0,-20.25,-35.15,-19.4,961.23,51.85146,43.43826,-96.68995,1311.6129,NaN,,,161.29355,,1 / 19,36110,2018-06-19 22:50:18:764
-1.5E-4,9.91643,1.032253,0.200802,-0.097472,0.040214,10.0,-20.45,-35.6,-18.8,961.26,51.85146,43.43826,-96.68995,1311.6129,NaN,,,161.29355,,1 / 19,36211,2018-06-19 22:50:18:865
0.016316,9.87751,0.664019,0.251136,-0.013049,0.071905,9.0,-20.55,-36.25,-17.25,961.26,53.16771,43.43826,-96.68995,1311.6129,NaN,,,161.29355,,1 / 19,36309,2018-06-19 22:50:18:963
-0.013023,9.92601,0.532143,0.17497,-0.025833,0.021305,9.0,-20.5,-36.75,-16.55,961.23,53.16771,43.43826,-96.68995,1311.6129,NaN,,,161.29355,,1 / 19,36410,2018-06-19 22:50:19:064
0.090262,9.910292,0.31734,0.175769,0.025566,0.019175,9.0,-20.35,-37.25,-15.85,961.29,53.16771,43.43826,-96.68995,1311.6129,NaN,,,161.29355,,1 / 19,36509,2018-06-19 22:50:19:163
0.145947,10.041718,0.175585,0.157659,0.082558,0.02317,8.0,-20.55,-37.8,-14.5,961.2,53.16771,43.43826,-96.68995,1311.6129,NaN,,,161.29355,,1 / 19,36610,2018-06-19 22:50:19:264
0.102836,9.929152,0.003742,0.199471,0.046073,0.048203,8.0,-20.3,-37.9,-14.05,961.23,50.03627,43.43826,-96.68995,1311.6129,NaN,,,161.29355,,1 / 19,36709,2018-06-19 22:50:19:363
0.195044,9.851016,-0.272583,0.178165,-0.010386,0.021838,9.0,-20.25,-38.45,-12.85,961.17,50.03627,43.43826,-96.68995,1311.6129,NaN,,,161.29355,,1 / 19,36810,2018-06-19 22:50:19:464
0.18771,9.965378,-0.350122,0.141414,-0.003196,0.026099,9.0,-20.0,-38.8,-12.5,961.2,50.03627,43.43826,-96.68995,1311.6129,NaN,,,161.29355,,1 / 19,36909,2018-06-19 22:50:19:563
0.174986,9.940828,-0.615071,0.136354,-0.020506,0.067644,8.0,-20.45,-38.3,-11.55,961.26,50.03627,43.43826,-96.68995,1311.6129,NaN,,,161.29355,,1 / 19,37011,2018-06-19 22:50:19:665
0.253124,9.883648,-0.729433,0.197873,-0.044741,0.074569,7.0,-20.4,-38.45,-11.3,961.2,48.45145,43.43826,-96.68995,1311.6129,NaN,,,161.29355,,1 / 19,37110,2018-06-19 22:50:19:764
0.264051,9.840686,-0.794099,0.112652,-0.018376,-0.01012,7.0,-20.55,-38.55,-10.75,961.2,48.45145,43.43826,-96.68995,1311.6129,NaN,,,161.29355,,1 / 19,37210,2018-06-19 22:50:19:864
0.279918,9.86778,-0.936153,0.067378,0.008788,-0.013316,8.0,-21.05,-38.65,-9.75,961.17,48.45145,43.43826,-96.68995,1311.6129,NaN,,,161.29355,,1 / 19,37310,2018-06-19 22:50:19:964
0.273481,9.840836,-0.983006,0.216515,-0.048203,-0.071106,8.0,-21.2,-38.45,-9.25,961.26,48.45145,43.43826,-96.68995,1311.6129,NaN,,,161.29355,,1 / 19,37413,2018-06-19 22:50:20:067
0.163759,9.85371,-1.230741,0.165649,-0.08602,0.006392,8.0,-21.25,-38.75,-8.1,961.23,51.98923,43.43826,-96.68995,1311.6129,NaN,,,161.29355,,1 / 19,37510,2018-06-19 22:50:20:164
0.152982,9.864636,-1.401985,0.168045,-0.09401,0.042611,7.0,-21.05,-39.3,-7.7,961.23,51.98923,43.43826,-96.68995,1311.6129,NaN,,,161.29355,,1 / 19,37610,2018-06-19 22:50:20:264
0.190254,9.710756,-1.533711,0.121706,-0.115315,-0.004794,7.0,-20.85,-39.3,-6.4,961.08,51.98923,43.43826,-96.68995,1311.6129,NaN,,,161.29355,,1 / 19,37711,2018-06-19 22:50:20:365
0.253872,9.72872,-1.614542,0.108391,-0.135289,0.017044,6.0,-20.85,-39.35,-5.85,961.08,49.63802,43.43826,-96.68995,1311.6129,NaN,,,161.29355,,1 / 19,37810,2018-06-19 22:50:20:464
0.180674,9.760604,-1.717229,0.124103,-0.123038,0.009055,6.0,-20.9,-39.35,-5.3,961.23,49.63802,43.43826,-96.68995,1311.6129,NaN,,,161.29355,,1 / 19,37910,2018-06-19 22:50:20:564
0.130678,9.710756,-1.85629,0.051133,-7.99E-4,0.011185,6.0,-20.95,-39.75,-4.85,961.23,49.63802,43.43826,-96.68995,1311.6129,NaN,,,161.29355,,1 / 19,38010,2018-06-19 22:50:20:664
0.135468,9.696686,-1.876348,0.06578,0.015446,-0.025566,6.0,-20.85,-39.55,-4.65,961.2,49.63802,43.43826,-96.68995,1311.6129,NaN,,,161.29355,,1 / 19,38110,2018-06-19 22:50:20:764
0.087568,9.702972,-1.966461,-0.007723,-0.029827,0.023436,6.0,-20.9,-39.5,-4.05,961.27,53.00223,43.43826,-96.68995,1311.6129,NaN,,,161.29355,,1 / 19,38211,2018-06-19 22:50:20:865
0.108824,9.7386,-2.010619,-0.022903,-0.032757,0.04847,6.0,-21.0,-39.55,-4.15,961.17,53.00223,43.43826,-96.68995,1311.6129,NaN,,,161.29355,,1 / 19,38309,2018-06-19 22:50:20:963
0.149539,9.657468,-1.914668,-0.06578,-0.00506,-0.020506,6.0,-21.05,-39.8,-4.15,961.2,53.00223,43.43826,-96.68995,1311.6129,NaN,,,161.29355,,1 / 19,38410,2018-06-19 22:50:21:064
0.089214,9.662856,-1.841471,-0.114782,-0.031958,-0.003995,6.0,-20.9,-39.85,-3.95,961.27,53.00223,43.43826,-96.68995,1311.6129,NaN,,,161.29355,,1 / 19,38511,2018-06-19 22:50:21:165
0.046254,9.673334,-1.796265,-0.118244,0.035154,-0.058323,7.0,-20.75,-40.15,-3.95,961.23,46.14249,43.43826,-96.68995,1311.6129,NaN,,,161.29355,,1 / 19,38612,2018-06-19 22:50:21:266
0.064666,9.9061,-1.65421,-0.080161,-0.049002,0.036219,6.0,-20.75,-40.2,-4.1,961.2,46.14249,43.43826,-96.68995,1311.6129,NaN,,,161.29355,,1 / 19,38710,2018-06-19 22:50:21:364
0.055085,9.754766,-1.617836,-0.084689,-0.017843,0.013316,7.0,-20.85,-40.2,-4.25,961.2,46.14249,43.43826,-96.68995,1311.6129,NaN,,,161.29355,,1 / 19,38810,2018-06-19 22:50:21:464
0.066162,9.807306,-1.518742,0.065514,0.041812,0.014914,7.0,-20.85,-39.6,-4.35,961.06,46.01192,43.43826,-96.68995,1311.6129,NaN,,,161.29355,,1 / 19,38909,2018-06-19 22:50:21:563
0.073048,9.743238,-1.578917,0.221042,0.103863,-0.027164,7.0,-20.9,-39.6,-4.45,961.33,46.01192,43.43826,-96.68995,1311.6129,NaN,,,161.29355,,1 / 19,39010,2018-06-19 22:50:21:664
0.078736,9.706716,-1.789379,0.218113,-0.110521,0.055394,6.0,-20.95,-39.55,-4.4,961.3,46.01192,43.43826,-96.68995,1311.6129,NaN,,,161.29355,,1 / 19,39110,2018-06-19 22:50:21:764
0.106578,9.640404,-1.962569,0.135555,0.011452,0.079362,6.0,-20.9,-39.5,-4.45,961.3,46.01192,43.43826,-96.68995,1311.6129,NaN,,,161.29355,,1 / 19,39211,2018-06-19 22:50:21:865
0.18771,9.750276,-2.047742,0.243946,-0.041545,0.049268,5.0,-21.1,-39.3,-4.1,961.2,46.01192,43.43826,-96.68995,1311.6129,NaN,,,161.29355,,1 / 19,39309,2018-06-19 22:50:21:963
0.150886,9.594,-2.332599,0.292948,-0.11425,-0.031425,5.0,-21.1,-39.75,-3.8,961.11,53.63762,43.43826,-96.68995,1311.6129,NaN,,,161.29355,,1 / 19,39409,2018-06-19 22:50:22:063
0.098795,9.573792,-2.574945,0.250603,-0.143012,0.019175,1.0,-20.9,-40.1,-3.15,961.24,53.63762,43.43826,-96.68995,1311.6129,NaN,,,161.29355,,1 / 19,39510,2018-06-19 22:50:22:164
0.181123,9.29597,-3.107687,0.25806,0.036219,0.064449,5.0,-20.8,-40.1,-2.05,961.24,53.63762,43.43826,-96.68995,1311.6129,NaN,,,161.29355,,1 / 19,39610,2018-06-19 22:50:22:264
0.087418,9.264834,-3.184777,0.285757,0.029028,-0.009587,5.0,-20.7,-40.2,-1.45,961.21,51.41118,43.43826,-96.68995,1311.6129,NaN,,,161.29355,,1 / 19,39709,2018-06-19 22:50:22:363
0.13472,9.296718,-3.486699,0.140615,0.037284,-0.001065,5.0,-20.6,-40.45,0.05,961.24,51.41118,43.43826,-96.68995,1311.6129,NaN,,,161.29355,,1 / 19,39809,2018-06-19 22:50:22:463
0.042212,9.12278,-3.513643,0.133957,-0.048736,-0.027697,5.0,-20.75,-40.05,0.9,961.27,51.41118,43.43826,-96.68995,1311.6129,NaN,,,161.29355,,1 / 19,39909,2018-06-19 22:50:22:563
-0.029788,9.197624,-3.738176,0.169377,-0.143278,-0.049801,5.0,-20.5,-39.8,2.3,961.27,45.51671,43.43826,-96.68995,1311.6129,NaN,,,161.29355,,1 / 19,40041,2018-06-19 22:50:22:695
-0.116308,9.071886,-3.88562,0.121174,0.001065,-0.067112,5.0,-20.4,-39.55,3.0,961.24,45.51671,43.43826,-96.68995,1311.6129,NaN,,,161.29355,,1 / 19,40110,2018-06-19 22:50:22:764
-0.180076,9.027278,-3.887117,0.05566,0.009321,-0.041279,5.0,-20.2,-39.55,3.5,961.27,45.51671,43.43826,-96.68995,1311.6129,NaN,,,161.29355,,1 / 19,40209,2018-06-19 22:50:22:863
-0.234562,9.007968,-4.01046,0.131028,-0.021039,-0.061785,5.0,-20.15,-39.55,4.35,961.3,45.51671,43.43826,-96.68995,1311.6129,NaN,,,161.29355,,1 / 19,40309,2018-06-19 22:50:22:963
-0.261207,8.957672,-4.140989,0.092678,-0.010919,0.015979,0.0,-19.95,-39.6,4.6,961.27,46.03409,43.43826,-96.68995,1311.6129,NaN,,,161.29355,,1 / 19,40410,2018-06-19 22:50:23:064
-0.230521,8.943452,-4.199367,0.074835,0.099869,0.008788,0.0,-19.55,-40.05,5.15,961.24,46.03409,43.43826,-96.68995,1311.6129,NaN,,,161.29355,,1 / 19,40510,2018-06-19 22:50:23:164
-0.168999,8.947794,-4.205205,0.094542,0.065514,0.002929,0.0,-19.65,-40.05,5.45,961.24,46.03409,43.43826,-96.68995,1311.6129,NaN,,,161.29355,,1 / 19,40609,2018-06-19 22:50:23:263
-0.17783,8.856034,-4.256698,0.067644,0.020773,-0.002397,0.0,-19.65,-40.4,5.55,961.27,46.03409,43.43826,-96.68995,1311.6129,NaN,,,161.29355,,1 / 19,40709,2018-06-19 22:50:23:363
-0.165256,8.837622,-4.436175,0.122239,0.064182,-0.043143,0.0,-19.7,-40.5,6.2,961.27,44.39498,43.43826,-96.68995,1311.6129,NaN,,,161.29355,,1 / 19,40811,2018-06-19 22:50:23:465
-0.18277,8.780142,-4.465663,0.021572,-0.004527,0.011984,0.0,-19.6,-40.2,6.45,961.27,44.39498,43.43826,-96.68995,1311.6129,NaN,,,161.29355,,1 / 19,40909,2018-06-19 22:50:23:563
-0.186812,8.767718,-4.472998,0.052198,-0.003995,0.003462,0.0,-19.75,-40.25,6.6,961.27,44.39498,43.43826,-96.68995,1311.6129,NaN,,,161.29355,,1 / 19,41009,2018-06-19 22:50:23:663
-0.1684,8.759634,-4.518803,0.023968,0.042078,0.046872,0.0,-19.7,-40.25,6.75,961.18,44.39498,43.43826,-96.68995,1311.6129,NaN,,,161.29355,,1 / 19,41109,2018-06-19 22:50:23:763
-0.124092,8.73329,-4.478088,-0.016778,-0.012517,-0.07084,0.0,-19.25,-40.3,6.75,961.21,45.49077,43.43826,-96.68995,1311.6129,NaN,,,161.29355,,1 / 19,41210,2018-06-19 22:50:23:864
-0.153132,8.715028,-4.475393,-0.091879,-0.031425,-0.002131,0.0,-19.2,-40.4,6.85,961.15,45.49077,43.43826,-96.68995,1311.6129,NaN,,,161.29355,,1 / 19,41310,2018-06-19 22:50:23:964
-0.164508,8.82415,-4.456981,-0.151001,-0.09614,-5.33E-4,0.0,-19.05,-40.4,6.9,961.21,45.49077,43.43826,-96.68995,1311.6129,NaN,,,161.29355,,1 / 19,41409,2018-06-19 22:50:24:063
-0.206271,8.89181,-4.13545,-0.386158,-0.123837,0.047404,0.0,-18.95,-40.8,6.75,961.18,47.65648,43.43826,-96.68995,1311.6129,NaN,,,161.29355,,1 / 19,41509,2018-06-19 22:50:24:163
-0.151335,9.049582,-3.879782,-0.386691,-0.122505,-0.002929,5.0,-18.95,-40.7,6.45,961.21,47.65648,43.43826,-96.68995,1311.6129,NaN,,,161.29355,,1 / 19,41609,2018-06-19 22:50:24:263
-0.287253,9.217832,-3.347938,-0.408795,0.013582,-0.011185,5.0,-18.75,-40.85,5.7,961.27,47.65648,43.43826,-96.68995,1311.6129,NaN,,,161.29355,,1 / 19,41710,2018-06-19 22:50:24:364
-0.320783,9.299262,-3.055745,-0.456998,-0.006924,0.0,5.0,-18.65,-40.75,5.2,961.24,47.65648,43.43826,-96.68995,1311.6129,NaN,,,161.29355,,1 / 19,41810,2018-06-19 22:50:24:464
-0.292941,9.36752,-2.800377,-0.494815,-0.056193,0.004794,5.0,-18.6,-40.8,4.5,961.27,47.65648,43.43826,-96.68995,1311.6129,NaN,,,161.29355,,1 / 19,41910,2018-06-19 22:50:24:564
-0.228126,9.644296,-2.205663,-0.540089,-0.127832,-0.005859,5.0,-19.0,-40.8,2.6,961.21,46.25543,43.43826,-96.68995,1311.6129,NaN,,,161.29355,,1 / 19,42010,2018-06-19 22:50:24:664
-0.21151,9.769434,-1.684148,-0.267648,-0.03329,-0.03542,7.0,-18.9,-40.8,1.35,961.21,46.25543,43.43826,-96.68995,1311.6129,NaN,,,161.29355,,1 / 19,42110,2018-06-19 22:50:24:764
-0.270937,9.760154,-1.360221,-0.353934,-0.059122,-0.036219,8.0,-19.05,-40.3,-0.75,961.15,46.25543,43.43826,-96.68995,1311.6129,NaN,,,161.29355,,1 / 19,42210,2018-06-19 22:50:24:864
-0.37512,9.90131,-0.980311,-0.416518,-0.070574,-0.003995,8.0,-19.15,-40.3,-2.0,961.21,45.73691,43.43826,-96.68995,1311.6129,NaN,,,161.29355,,1 / 19,42309,2018-06-19 22:50:24:963
-0.34608,9.896072,-0.454904,-0.556334,0.04554,0.009321,8.0,-19.1,-40.3,-4.25,961.21,45.73691,43.43826,-96.68995,1311.6129,NaN,,,161.29355,,1 / 19,42410,2018-06-19 22:50:25:064
-0.320184,9.868978,-0.151036,-0.486826,-0.101466,0.010386,8.0,-18.95,-40.05,-5.45,961.34,45.73691,43.43826,-96.68995,1311.6129,NaN,,,161.29355,,1 / 19,42510,2018-06-19 22:50:25:164
-0.391436,10.010584,0.664468,-0.405333,-0.099869,0.039148,9.0,-18.8,-39.5,-7.8,961.27,46.09159,43.43826,-96.68995,1311.6129,NaN,,,161.29355,,1 / 19,42610,2018-06-19 22:50:25:264
-0.349373,9.968072,0.856818,-0.526241,-0.203199,0.167779,10.0,-18.7,-39.75,-8.95,961.21,46.09159,43.43826,-96.68995,1311.6129,NaN,,,161.29355,,1 / 19,42709,2018-06-19 22:50:25:363
-0.211959,9.963282,1.291065,-0.425573,-0.183492,0.010919,10.0,-18.9,-39.55,-10.25,961.07,46.09159,43.43826,-96.68995,1311.6129,NaN,,,161.29355,,1 / 19,42810,2018-06-19 22:50:25:464
-0.18292,9.710906,1.854194,-0.437824,-0.053263,0.006125,11.0,-19.4,-38.5,-12.5,961.24,46.09159,43.43826,-96.68995,1311.6129,NaN,,,161.29355,,1 / 19,42909,2018-06-19 22:50:25:563
-0.180974,9.652828,2.196982,-0.452205,-0.072438,-0.082558,11.0,-19.7,-37.9,-13.75,961.21,46.09159,43.43826,-96.68995,1311.6129,NaN,,,161.29355,,1 / 19,43010,2018-06-19 22:50:25:664
-0.158371,9.537118,2.828817,-0.463124,0.053263,-0.041545,12.0,-20.45,-36.65,-16.2,961.21,46.10301,43.43826,-96.68995,1311.6129,NaN,,,161.29355,,1 / 19,43110,2018-06-19 22:50:25:764
-0.230371,9.5458,3.168461,-0.56965,0.054595,-0.028762,13.0,-20.7,-36.15,-17.1,961.21,46.10301,43.43826,-96.68995,1311.6129,NaN,,,161.29355,,1 / 19,43209,2018-06-19 22:50:25:863
-0.286055,9.24732,3.80853,-0.450607,0.045806,0.032224,13.0,-20.75,-34.45,-18.95,961.28,46.10301,43.43826,-96.68995,1311.6129,NaN,,,161.29355,,1 / 19,43309,2018-06-19 22:50:25:963
-0.341889,9.030572,4.08291,-0.568585,0.072438,0.016512,15.0,-20.7,-33.85,-20.0,961.31,45.91869,43.43826,-96.68995,1311.6129,NaN,,,161.29355,,1 / 19,43412,2018-06-19 22:50:26:066
-0.419577,8.836126,4.518953,-0.607201,0.213852,-0.028762,18.0,-20.6,-33.4,-21.0,961.24,45.91869,43.43826,-96.68995,1311.6129,NaN,,,161.29355,,1 / 19,43511,2018-06-19 22:50:26:165
-0.427661,8.523874,5.329966,-0.749147,-0.093743,0.044208,32.0,-19.95,-31.55,-23.1,961.28,45.91869,43.43826,-96.68995,1311.6129,NaN,,,161.29355,,1 / 19,43610,2018-06-19 22:50:26:264
-0.294438,8.291857,5.481003,-0.404002,-0.169643,0.099869,146.0,-19.95,-30.55,-23.8,961.28,45.91869,43.43826,-96.68995,1311.6129,NaN,,,161.29355,,1 / 19,43709,2018-06-19 22:50:26:363
-0.188009,7.921976,6.048023,-0.414654,-0.119842,0.042078,163.0,-19.85,-28.3,-26.1,961.22,46.66378,43.43826,-96.68995,1311.6129,NaN,,,161.29355,,1 / 19,43810,2018-06-19 22:50:26:464
-0.152233,7.813003,6.457572,-0.485228,-0.097738,0.049268,124.0,-20.0,-27.2,-27.05,961.22,46.66378,43.43826,-96.68995,1311.6129,NaN,,,161.29355,,1 / 19,43910,2018-06-19 22:50:26:564
-0.06272,7.231313,6.761589,-0.51692,0.30866,0.043942,107.0,-20.1,-24.55,-28.95,961.22,46.66378,43.43826,-96.68995,1311.6129,NaN,,,161.29355,,1 / 19,44011,2018-06-19 22:50:26:665
-0.239502,7.063512,7.19389,-0.653007,0.258593,0.057524,88.0,-20.45,-23.55,-29.95,961.19,45.49387,43.43826,-96.68995,1311.6129,NaN,,,161.29355,,1 / 19,44109,2018-06-19 22:50:26:763
-0.34623,6.663094,7.523505,-0.661263,-0.015979,0.017044,88.0,-20.75,-22.25,-30.9,961.28,45.49387,43.43826,-96.68995,1311.6129,NaN,,,161.29355,,1 / 19,44209,2018-06-19 22:50:26:863
-0.276026,5.875432,7.928413,-0.6333,0.078563,-2.66E-4,91.0,-20.6,-19.55,-32.6,961.16,45.49387,43.43826,-96.68995,1311.6129,NaN,,,161.29355,,1 / 19,44310,2018-06-19 22:50:26:964
-0.390688,5.589976,8.305928,-0.526773,-0.04048,0.028762,82.0,-20.45,-18.3,-33.55,961.22,45.49387,43.43826,-96.68995,1311.6129,NaN,,,161.29355,,1 / 19,44410,2018-06-19 22:50:27:064
-0.275427,4.954547,8.740474,-0.62531,-0.100667,0.070574,83.0,-19.95,-15.35,-35.25,961.19,54.51988,43.43826,-96.68995,1311.6129,NaN,,,161.29355,,1 / 19,44509,2018-06-19 22:50:27:163
-0.195943,4.421057,9.001682,-0.419714,-0.173904,0.063383,82.0,-20.0,-13.55,-35.95,961.19,54.51988,43.43826,-96.68995,1311.6129,NaN,,,161.29355,,1 / 19,44610,2018-06-19 22:50:27:264
-0.223934,3.730692,9.491912,-0.666589,-0.169643,-0.035686,84.0,-19.5,-10.35,-36.9,961.25,54.51988,43.43826,-96.68995,1311.6129,NaN,,,161.29355,,1 / 19,44709,2018-06-19 22:50:27:363
-0.071102,3.384013,9.499846,-0.528371,-0.05353,0.040746,80.0,-19.8,-8.5,-37.0,961.25,54.51988,43.43826,-96.68995,1311.6129,NaN,,,161.29355,,1 / 19,44810,2018-06-19 22:50:27:464
-0.043859,2.948718,9.703572,-0.978179,0.390686,0.076433,66.0,-19.75,-6.6,-37.3,961.28,55.52271,43.43826,-96.68995,1311.6129,NaN,,,161.29355,,1 / 19,44909,2018-06-19 22:50:27:563
-0.328417,1.830094,9.626184,-0.553937,0.057258,0.19228,54.0,-19.85,-3.0,-37.9,961.25,55.52271,43.43826,-96.68995,1311.6129,NaN,,,161.29355,,1 / 19,45010,2018-06-19 22:50:27:664
-0.411345,1.427581,9.792486,-0.488157,0.04048,0.193079,52.0,-19.75,-1.25,-38.4,961.22,55.52271,43.43826,-96.68995,1311.6129,NaN,,,161.29355,,1 / 19,45110,2018-06-19 22:50:27:764
-0.392783,0.822839,9.832154,-0.393882,0.073237,0.16991,50.0,-19.35,2.15,-38.8,961.19,55.52271,43.43826,-96.68995,1311.6129,NaN,,,161.29355,,1 / 19,45209,2018-06-19 22:50:27:863
-0.372276,0.486937,9.875564,-0.449542,0.065514,0.177899,49.0,-19.0,4.05,-39.1,961.22,62.06645,43.43826,-96.68995,1311.6129,NaN,,,161.29355,,1 / 19,45310,2018-06-19 22:50:27:964
-0.502804,-0.125589,9.970018,-0.344347,-0.16991,0.068976,50.0,-17.7,6.5,-39.85,961.19,62.06645,43.43826,-96.68995,1311.6129,NaN,,,161.29355,,1 / 19,45410,2018-06-19 22:50:28:064
-0.560884,-0.446821,9.916878,-0.41279,-0.17204,-0.063916,43.0,-17.4,7.95,-39.7,961.09,62.06645,43.43826,-96.68995,1311.6129,NaN,,,161.29355,,1 / 19,45509,2018-06-19 22:50:28:163
-0.314945,-0.555345,9.763148,-0.486027,-0.214118,0.019707,42.0,-17.3,9.1,-39.4,961.09,55.8832,43.43826,-96.68995,1311.6129,NaN,,,161.29355,,1 / 19,45609,2018-06-19 22:50:28:263
-0.118404,-1.489852,9.869428,-0.613592,-0.131826,0.085754,34.0,-17.35,11.8,-38.45,961.19,55.8832,43.43826,-96.68995,1311.6129,NaN,,,161.29355,,1 / 19,45710,2018-06-19 22:50:28:364
-0.140258,-1.879492,9.827814,-0.783768,-0.11931,0.076433,32.0,-17.35,13.0,-38.2,961.09,55.8832,43.43826,-96.68995,1311.6129,NaN,,,161.29355,,1 / 19,45809,2018-06-19 22:50:28:463
0.396076,-2.527195,9.45928,-0.709732,-0.053796,-0.116114,36.0,-17.5,15.85,-37.0,961.15,55.8832,43.43826,-96.68995,1311.6129,NaN,,,161.29355,,1 / 19,45910,2018-06-19 22:50:28:564
0.364492,-3.010989,9.306598,-0.382963,-0.019441,0.140615,41.0,-18.15,17.65,-36.1,961.22,48.06681,43.43826,-96.68995,1311.6129,NaN,,,161.29355,,1 / 19,46009,2018-06-19 22:50:28:663
0.277523,-3.47173,9.1135,-0.304932,0.111054,0.044741,47.0,-18.65,20.7,-34.65,961.19,48.06681,43.43826,-96.68995,1311.6129,NaN,,,161.29355,,1 / 19,46110,2018-06-19 22:50:28:764
0.340392,-3.758983,9.130264,-0.586961,0.031425,0.070574,49.0,-18.7,22.0,-33.8,961.09,48.06681,43.43826,-96.68995,1311.6129,NaN,,,161.29355,,1 / 19,46210,2018-06-19 22:50:28:864
0.253722,-4.114344,8.971294,-0.588292,-0.049801,0.133158,61.0,-18.65,23.15,-32.95,961.16,48.06681,43.43826,-96.68995,1311.6129,NaN,,,161.29355,,1 / 19,46309,2018-06-19 22:50:28:963
0.070054,-4.84707,8.643326,-0.523844,0.09907,0.040214,62.0,-18.85,25.7,-31.35,961.19,46.65677,43.43826,-96.68995,1311.6129,NaN,,,161.29355,,1 / 19,46410,2018-06-19 22:50:29:064
0.050595,-5.049749,8.534204,-0.638093,0.188285,0.157127,68.0,-18.55,26.75,-30.5,961.15,46.65677,43.43826,-96.68995,1311.6129,NaN,,,161.29355,,1 / 19,46509,2018-06-19 22:50:29:163
-0.351918,-5.70808,8.023316,-0.536361,0.063916,0.039415,68.0,-17.5,28.5,-29.0,961.25,46.65677,43.43826,-96.68995,1311.6129,NaN,,,161.29355,,1 / 19,46610,2018-06-19 22:50:29:264
-0.335901,-6.062543,7.766899,-0.666323,-0.139816,-0.191748,139.0,-17.2,29.5,-28.15,961.25,46.65677,43.43826,-96.68995,1311.6129,NaN,,,161.29355,,1 / 19,46710,2018-06-19 22:50:29:364
-0.138911,-6.591692,7.287745,-0.490554,0.016512,0.141414,69.0,-16.6,32.1,-26.4,961.19,47.62573,43.43826,-96.68995,1311.6129,NaN,,,161.29355,,1 / 19,46809,2018-06-19 22:50:29:463
-0.302521,-7.094646,7.019354,-0.417051,0.031425,0.143012,66.0,-16.5,33.35,-25.15,961.09,47.62573,43.43826,-96.68995,1311.6129,NaN,,,161.29355,,1 / 19,46909,2018-06-19 22:50:29:563
-0.437241,-7.266639,6.876401,-0.285757,-0.023169,0.087618,65.0,-16.35,34.5,-23.9,961.31,47.62573,43.43826,-96.68995,1311.6129,NaN,,,161.29355,,1 / 19,47010,2018-06-19 22:50:29:664
-0.455054,-7.274123,6.51595,-0.18216,-0.014381,0.097205,67.0,-16.2,36.75,-21.65,961.25,48.32694,43.43826,-96.68995,1311.6129,NaN,,,161.29355,,1 / 19,47110,2018-06-19 22:50:29:764
-0.482297,-7.500303,6.372848,-0.330232,0.087085,0.092944,64.0,-16.35,37.4,-20.7,961.22,48.32694,43.43826,-96.68995,1311.6129,NaN,,,161.29355,,1 / 19,47209,2018-06-19 22:50:29:863
-0.575852,-7.799231,5.941445,-0.577373,0.081759,-0.061519,64.0,-16.15,39.05,-18.75,961.28,48.32694,43.43826,-96.68995,1311.6129,NaN,,,161.29355,,1 / 19,47309,2018-06-19 22:50:29:963
-0.531245,-7.934251,5.799241,-0.457797,0.080427,-0.015979,123.0,-16.0,39.5,-17.8,961.16,48.32694,43.43826,-96.68995,1311.6129,NaN,,,161.29355,,1 / 19,47409,2018-06-19 22:50:30:063
-0.459245,-8.248896,5.419929,-0.204797,-0.092678,-0.064448,60.0,-15.75,40.15,-16.45,961.22,49.24254,43.43826,-96.68995,1311.6129,NaN,,,161.29355,,1 / 19,47510,2018-06-19 22:50:30:164
-0.381856,-8.192014,5.310507,-0.322509,0.047404,0.078563,121.0,-15.85,40.35,-15.75,961.16,49.24254,43.43826,-96.68995,1311.6129,NaN,,,161.29355,,1 / 19,47610,2018-06-19 22:50:30:264
-0.411494,-8.407566,5.083579,-0.386158,0.051133,0.0506,116.0,-15.8,40.6,-13.65,961.22,49.24254,43.43826,-96.68995,1311.6129,NaN,,,161.29355,,1 / 19,47711,2018-06-19 22:50:30:365
-0.400118,-8.714578,4.68391,-0.208792,-0.079629,0.027431,113.0,-15.7,41.35,-12.9,961.28,49.24254,43.43826,-96.68995,1311.6129,NaN,,,161.29355,,1 / 19,47810,2018-06-19 22:50:30:464
-0.391436,-8.600514,4.63077,-0.386957,0.079096,0.058323,111.0,-15.6,41.7,-11.9,961.25,49.11734,43.43826,-96.68995,1311.6129,NaN,,,161.29355,,1 / 19,47909,2018-06-19 22:50:30:563
-0.600701,-9.164542,3.99624,-0.286556,-0.046339,0.008256,109.0,-15.45,42.15,-9.95,961.22,49.11734,43.43826,-96.68995,1311.6129,NaN,,,161.29355,,1 / 19,48010,2018-06-19 22:50:30:664
-0.611628,-9.120084,3.813919,-0.261789,0.034887,0.11638,106.0,-15.6,42.55,-8.8,961.25,49.11734,43.43826,-96.68995,1311.6129,NaN,,,161.29355,,1 / 19,48110,2018-06-19 22:50:30:764
-0.650248,-9.240734,3.493585,-0.237554,-0.010386,0.015979,104.0,-15.2,43.15,-7.3,961.16,48.24214,43.43826,-96.68995,1311.6129,NaN,,,161.29355,,1 / 19,48210,2018-06-19 22:50:30:864
-0.566721,-9.224118,3.432213,-0.377636,0.134223,0.02317,101.0,-15.0,43.35,-6.8,961.25,48.24214,43.43826,-96.68995,1311.6129,NaN,,,161.29355,,1 / 19,48309,2018-06-19 22:50:30:963
-0.630489,-9.264534,3.244803,-0.381098,0.03036,-0.015979,99.0,-15.0,43.5,-5.95,961.22,48.24214,43.43826,-96.68995,1311.6129,NaN,,,161.29355,,1 / 19,48411,2018-06-19 22:50:31:065
-0.510439,-9.248368,2.80367,-0.558997,-0.067911,0.006658,93.0,-15.2,43.7,-4.35,961.19,48.24214,43.43826,-96.68995,1311.6129,NaN,,,161.29355,,1 / 19,48510,2018-06-19 22:50:31:164
-0.57241,-9.500442,2.265988,-0.547013,0.003196,0.07377,89.0,-15.25,43.8,-3.3,961.19,48.71823,43.43826,-96.68995,1311.6129,NaN,,,161.29355,,1 / 19,48609,2018-06-19 22:50:31:263
-0.709524,-9.690398,1.502875,-0.530235,-0.001332,-0.103064,83.0,-15.15,43.95,-1.35,961.25,48.71823,43.43826,-96.68995,1311.6129,NaN,,,161.29355,,1 / 19,48709,2018-06-19 22:50:31:363
-0.575104,-9.857152,1.052761,-0.61013,0.105727,-0.036219,79.0,-15.1,44.0,-0.05,961.28,48.71823,43.43826,-96.68995,1311.6129,NaN,,,161.29355,,1 / 19,48810,2018-06-19 22:50:31:464
-0.53379,-9.70372,0.388742,-0.518251,0.043676,-0.014647,32.0,-15.3,43.9,3.25,961.22,48.71823,43.43826,-96.68995,1311.6129,NaN,,,161.29355,,1 / 19,48910,2018-06-19 22:50:31:564
-0.538131,-9.71839,0.112416,-0.329167,-0.141414,0.074302,28.0,-15.25,43.7,5.1,961.31,50.9516,43.43826,-96.68995,1311.6129,NaN,,,161.29355,,1 / 19,49010,2018-06-19 22:50:31:664
-0.522563,-9.830208,-0.350571,-0.566987,0.148338,0.142479,21.0,-15.25,43.7,6.8,961.16,50.9516,43.43826,-96.68995,1311.6129,NaN,,,161.29355,,1 / 19,49110,2018-06-19 22:50:31:764
-0.746049,-9.812844,-1.303789,-0.79016,0.494016,-0.007457,15.0,-15.05,43.15,9.95,961.22,50.9516,43.43826,-96.68995,1311.6129,NaN,,,161.29355,,1 / 19,49210,2018-06-19 22:50:31:864
-0.683928,-9.633368,-1.572779,-0.512925,0.021305,-0.18722,7.0,-15.3,42.65,11.7,961.22,50.9516,43.43826,-96.68995,1311.6129,NaN,,,161.29355,,1 / 19,49314,2018-06-19 22:50:31:968
-0.600701,-9.488468,-2.215393,-0.18722,-0.068177,0.008256,6.0,-15.45,41.8,14.7,961.28,49.13451,43.43826,-96.68995,1311.6129,NaN,,,161.29355,,1 / 19,49409,2018-06-19 22:50:32:063
-0.487536,-9.480086,-2.223327,-0.299073,-0.100401,0.062318,6.0,-15.35,41.25,15.9,961.19,49.13451,43.43826,-96.68995,1311.6129,NaN,,,161.29355,,1 / 19,49509,2018-06-19 22:50:32:163
-0.616119,-9.404942,-2.816393,-0.430633,-0.06871,0.022104,6.0,-15.4,39.85,18.2,961.28,49.13451,43.43826,-96.68995,1311.6129,NaN,,,161.29355,,1 / 19,49609,2018-06-19 22:50:32:263
-0.59127,-9.29043,-2.963537,-0.406132,0.007191,0.055394,6.0,-15.6,39.35,19.25,961.22,49.47501,43.43826,-96.68995,1311.6129,NaN,,,161.29355,,1 / 19,49710,2018-06-19 22:50:32:364
-0.65414,-9.26603,-3.407963,-0.328368,0.006924,0.041013,6.0,-15.95,38.6,20.25,961.16,49.47501,43.43826,-96.68995,1311.6129,NaN,,,161.29355,,1 / 19,49810,2018-06-19 22:50:32:464
-0.790805,-9.029972,-3.709736,-0.319846,-0.092678,-0.010919,6.0,-16.0,38.5,22.85,961.28,49.47501,43.43826,-96.68995,1311.6129,NaN,,,161.29355,,1 / 19,49909,2018-06-19 22:50:32:563
-0.703986,-8.859028,-3.869753,-0.375772,-0.04341,0.027963,7.0,-15.9,37.95,23.95,961.19,49.47501,43.43826,-96.68995,1311.6129,NaN,,,161.29355,,1 / 19,50010,2018-06-19 22:50:32:664
-0.696352,-8.658744,-4.264931,-0.393349,0.052198,0.02024,6.0,-15.9,36.4,25.6,961.22,48.24037,43.43826,-96.68995,1311.6129,NaN,,,161.29355,,1 / 19,50110,2018-06-19 22:50:32:764
-0.70698,-8.60755,-4.562362,-0.379234,0.189617,-0.003728,6.0,-15.9,36.0,26.6,961.22,48.24037,43.43826,-96.68995,1311.6129,NaN,,,161.29355,,1 / 19,50210,2018-06-19 22:50:32:864
-0.646655,-8.449928,-4.960834,-0.123571,0.059921,0.035686,6.0,-16.0,35.0,28.6,961.19,48.24037,43.43826,-96.68995,1311.6129,NaN,,,161.29355,,1 / 19,50312,2018-06-19 22:50:32:966
-0.583786,-8.435408,-5.225034,-0.078031,-0.012251,0.042078,6.0,-15.95,33.95,29.25,961.28,48.24037,43.43826,-96.68995,1311.6129,NaN,,,161.29355,,1 / 19,50410,2018-06-19 22:50:33:064
-0.680036,-8.311017,-4.98673,-0.144343,-0.062584,-0.029561,5.0,-15.95,32.9,29.3,961.1,49.10828,43.43826,-96.68995,1311.6129,NaN,,,161.29355,,1 / 19,50510,2018-06-19 22:50:33:164
-0.657133,-8.183182,-5.098248,-0.193079,-0.054062,0.046605,5.0,-16.05,31.6,29.85,961.19,49.10828,43.43826,-96.68995,1311.6129,NaN,,,161.29355,,1 / 19,50610,2018-06-19 22:50:33:264
-0.717907,-8.111931,-5.363347,-0.255131,-0.129163,0.07084,6.0,-16.2,31.25,30.45,961.19,49.10828,43.43826,-96.68995,1311.6129,NaN,,,161.29355,,1 / 19,50709,2018-06-19 22:50:33:363
-0.787512,-7.930359,-5.462291,-0.19521,-0.047671,0.031159,6.0,-16.3,30.1,30.95,961.07,49.19177,43.43826,-96.68995,1311.6129,NaN,,,161.29355,,1 / 19,50809,2018-06-19 22:50:33:463
-0.810265,-7.924221,-5.777984,-0.254865,0.169111,0.015713,6.0,-16.15,29.55,31.3,961.19,49.19177,43.43826,-96.68995,1311.6129,NaN,,,161.29355,,1 / 19,50910,2018-06-19 22:50:33:564
-0.861159,-7.779622,-6.004314,-0.003196,0.067911,-0.019175,6.0,-16.05,28.25,31.8,961.07,49.19177,43.43826,-96.68995,1311.6129,NaN,,,161.29355,,1 / 19,51010,2018-06-19 22:50:33:664
-0.793949,-7.62185,-5.731581,-0.166448,-0.06072,0.026365,6.0,-16.35,28.05,32.35,961.19,49.19177,43.43826,-96.68995,1311.6129,NaN,,,161.29355,,1 / 19,51109,2018-06-19 22:50:33:763
-0.854723,-7.599846,-5.910459,-0.15473,-0.030626,-0.022371,6.0,-16.25,27.7,32.85,961.22,48.59323,43.43826,-96.68995,1311.6129,NaN,,,161.29355,,1 / 19,51210,2018-06-19 22:50:33:864
-0.839305,-7.586673,-6.210285,-0.044475,-0.036485,0.015713,5.0,-16.05,26.65,33.35,961.22,48.59323,43.43826,-96.68995,1311.6129,NaN,,,161.29355,,1 / 19,51310,2018-06-19 22:50:33:964
-0.856669,-7.476652,-6.089337,-0.104929,-0.061253,0.017311,5.0,-15.75,25.8,33.4,961.22,48.59323,43.43826,-96.68995,1311.6129,NaN,,,161.29355,,1 / 19,51410,2018-06-19 22:50:34:064
-0.864602,-7.431895,-6.156547,-0.108657,-0.092944,0.029827,5.0,-15.65,25.25,33.7,961.16,48.59323,43.43826,-96.68995,1311.6129,NaN,,,161.29355,,1 / 19,51510,2018-06-19 22:50:34:164
-0.902324,-7.401508,-6.300099,-0.10413,-0.011185,0.032491,5.0,-15.6,25.15,33.95,961.25,47.87351,43.43826,-96.68995,1311.6129,NaN,,,161.29355,,1 / 19,51609,2018-06-19 22:50:34:263
-0.877326,-7.360643,-6.336622,-0.019175,0.012251,0.026632,5.0,-15.5,24.05,33.9,961.22,47.87351,43.43826,-96.68995,1311.6129,NaN,,,161.29355,,1 / 19,51709,2018-06-19 22:50:34:363
-0.929717,-7.301516,-6.330036,-0.062318,-0.024235,0.049535,5.0,-15.55,24.2,34.45,961.22,47.87351,43.43826,-96.68995,1311.6129,NaN,,,161.29355,,1 / 19,51809,2018-06-19 22:50:34:463
-0.956212,-7.253466,-6.349795,-0.073503,0.11132,0.039681,5.0,-15.55,24.2,34.45,961.28,49.23386,43.43826,-96.68995,1311.6129,NaN,,,161.29355,,1 / 19,51910,2018-06-19 22:50:34:564
-0.933159,-7.337292,-6.575376,0.113983,0.174703,-0.066845,5.0,-15.6,24.0,34.65,961.22,49.23386,43.43826,-96.68995,1311.6129,NaN,,,161.29355,,1 / 19,52010,2018-06-19 22:50:34:664
-0.749042,-7.342381,-6.414161,0.092412,-0.025833,0.011452,6.0,-15.65,23.8,34.75,961.28,49.23386,43.43826,-96.68995,1311.6129,NaN,,,161.29355,,1 / 19,52109,2018-06-19 22:50:34:763
-0.743204,-7.531438,-6.327192,0.291882,0.070307,0.011185,6.0,-15.75,24.15,34.75,961.26,49.23386,43.43826,-96.68995,1311.6129,NaN,,,161.29355,,1 / 19,52210,2018-06-19 22:50:34:864
-0.763263,-7.835306,-6.420598,0.717722,0.055926,-0.064981,6.0,-15.9,24.2,34.7,961.28,49.25591,43.43826,-96.68995,1311.6129,NaN,,,161.29355,,1 / 19,52310,2018-06-19 22:50:34:964
-0.563728,-7.831115,-5.654341,0.508664,-0.103064,0.005326,6.0,-16.25,24.4,34.05,961.26,49.25591,43.43826,-96.68995,1311.6129,NaN,,,161.29355,,1 / 19,52409,2018-06-19 22:50:35:063
-0.677641,-8.253835,-5.300477,0.564324,0.019707,0.009321,5.0,-16.4,25.5,33.3,961.26,49.25591,43.43826,-96.68995,1311.6129,NaN,,,161.29355,,1 / 19,52510,2018-06-19 22:50:35:164
-0.746049,-8.43391,-4.908143,0.698015,0.145941,0.005859,6.0,-16.55,26.25,32.65,961.19,49.25591,43.43826,-96.68995,1311.6129,NaN,,,161.29355,,1 / 19,52610,2018-06-19 22:50:35:264
-0.655337,-8.93028,-3.949387,0.975516,-0.118511,0.07084,6.0,-16.85,28.6,30.9,961.26,49.76142,43.43826,-96.68995,1311.6129,NaN,,,161.29355,,1 / 19,52710,2018-06-19 22:50:35:364
-0.798739,-9.101672,-3.455115,0.934503,0.014914,0.06365,6.0,-16.85,30.0,29.7,961.32,49.76142,43.43826,-96.68995,1311.6129,NaN,,,161.29355,,1 / 19,52809,2018-06-19 22:50:35:463
-0.621358,-9.54984,-1.915117,1.085771,-0.080161,0.057791,7.0,-16.8,33.75,27.25,961.26,49.76142,43.43826,-96.68995,1311.6129,NaN,,,161.29355,,1 / 19,52910,2018-06-19 22:50:35:564
-0.73078,-9.613308,-1.279838,1.140632,-0.147273,0.119043,9.0,-16.8,35.45,25.4,961.26,49.76142,43.43826,-96.68995,1311.6129,NaN,,,161.29355,,1 / 19,53009,2018-06-19 22:50:35:663
-0.713267,-9.722582,0.380509,1.113201,-0.099869,0.057258,26.0,-16.45,38.6,20.7,961.23,48.8917,43.43826,-96.68995,1311.6129,NaN,,,161.29355,,1 / 19,53109,2018-06-19 22:50:35:763
-0.811612,-9.662706,1.143622,1.093494,-0.172839,0.049801,73.0,-16.1,40.0,18.0,961.26,48.8917,43.43826,-96.68995,1311.6129,NaN,,,161.29355,,1 / 19,53210,2018-06-19 22:50:35:864
-0.849184,-9.592352,1.862577,1.015463,-0.14168,0.126234,79.0,-15.7,41.35,15.25,961.16,48.8917,43.43826,-96.68995,1311.6129,NaN,,,161.29355,,1 / 19,53310,2018-06-19 22:50:35:964
-0.813259,-9.27591,3.049459,0.975516,0.070041,0.055394,83.0,-15.25,43.1,8.9,961.23,53.01868,43.43826,-96.68995,1311.6129,NaN,,,161.29355,,1 / 19,53409,2018-06-19 22:50:36:063
-0.982706,-8.884324,3.769162,0.863131,0.029028,0.127299,93.0,-14.9,43.45,5.55,961.29,53.01868,43.43826,-96.68995,1311.6129,NaN,,,161.29355,,1 / 19,53509,2018-06-19 22:50:36:163
-0.961301,-8.511002,4.926705,1.008273,-0.268713,0.061253,99.0,-14.5,43.9,-0.3,961.2,53.01868,43.43826,-96.68995,1311.6129,NaN,,,161.29355,,1 / 19,53609,2018-06-19 22:50:36:263
-0.927621,-8.308922,5.511988,1.189368,-0.222907,0.06871,58.0,-14.3,43.6,-3.25,961.2,53.01868,43.43826,-96.68995,1311.6129,NaN,,,161.29355,,1 / 19,53710,2018-06-19 22:50:36:364
-0.805774,-7.288493,6.461763,0.668453,-0.151268,-0.050067,59.0,-14.3,42.5,-8.8,961.32,49.88379,43.43826,-96.68995,1311.6129,NaN,,,161.29355,,1 / 19,53809,2018-06-19 22:50:36:463
-0.785417,-6.85739,6.691835,0.607467,-0.171774,-0.021039,60.0,-14.35,41.9,-11.15,961.16,49.88379,43.43826,-96.68995,1311.6129,NaN,,,161.29355,,1 / 19,53910,2018-06-19 22:50:36:564
-0.817151,-6.66474,7.040011,0.629838,-0.183225,-0.063383,62.0,-14.2,40.75,-13.5,961.2,49.88379,43.43826,-96.68995,1311.6129,NaN,,,161.29355,,1 / 19,54009,2018-06-19 22:50:36:663
-0.414937,-6.050867,7.762109,0.711863,-0.003995,0.003728,60.0,-14.4,38.25,-18.1,961.2,49.88379,43.43826,-96.68995,1311.6129,NaN,,,161.29355,,1 / 19,54109,2018-06-19 22:50:36:763
-0.472268,-5.640121,8.087981,0.729706,0.12437,0.120908,60.0,-14.7,37.1,-19.9,961.2,48.36397,43.43826,-96.68995,1311.6129,NaN,,,161.29355,,1 / 19,54210,2018-06-19 22:50:36:864
-0.600401,-5.050497,8.711434,0.531301,-0.010386,0.020773,58.0,-14.9,34.55,-23.25,961.26,48.36397,43.43826,-96.68995,1311.6129,NaN,,,161.29355,,1 / 19,54310,2018-06-19 22:50:36:964
-0.710273,-4.444707,8.754696,0.428503,0.031425,-0.049801,55.0,-14.9,33.6,-24.7,961.2,48.36397,43.43826,-96.68995,1311.6129,NaN,,,161.29355,,1 / 19,54409,2018-06-19 22:50:37:063
-0.650248,-3.816763,9.02144,0.731038,-0.121174,-0.019707,55.0,-15.05,31.1,-27.35,961.23,47.10604,43.43826,-96.68995,1311.6129,NaN,,,161.29355,,1 / 19,54510,2018-06-19 22:50:37:164
-0.526455,-3.557203,9.273666,0.723315,-0.096939,-0.032757,39.0,-15.05,30.0,-28.75,961.26,47.10604,43.43826,-96.68995,1311.6129,NaN,,,161.29355,,1 / 19,54609,2018-06-19 22:50:37:263
-0.462538,-2.926414,9.365126,0.604538,-0.1518,-0.072971,35.0,-15.1,28.75,-30.05,961.2,47.10604,43.43826,-96.68995,1311.6129,NaN,,,161.29355,,1 / 19,54710,2018-06-19 22:50:37:364
-0.565973,-2.149231,9.575288,0.541687,0.082292,-0.017843,30.0,-15.35,26.2,-32.2,961.23,47.10604,43.43826,-96.68995,1311.6129,NaN,,,161.29355,,1 / 19,54809,2018-06-19 22:50:37:463
-0.597258,-1.792223,9.653126,0.461792,0.162985,-0.064715,26.0,-15.45,24.8,-32.9,961.23,48.69322,43.43826,-96.68995,1311.6129,NaN,,,161.29355,,1 / 19,54910,2018-06-19 22:50:37:564
-0.719105,-1.147214,9.824222,0.495082,2.66E-4,-7.99E-4,26.0,-15.85,22.05,-34.7,961.23,48.69322,43.43826,-96.68995,1311.6129,NaN,,,161.29355,,1 / 19,55010,2018-06-19 22:50:37:664
-0.667612,-0.994532,10.02136,0.344879,-0.064448,-0.092944,34.0,-15.9,20.4,-35.6,961.17,48.69322,43.43826,-96.68995,1311.6129,NaN,,,161.29355,,1 / 19,55110,2018-06-19 22:50:37:764
-0.594414,-0.464185,9.95984,0.10413,0.041013,0.074302,42.0,-15.7,17.3,-36.55,961.17,48.69322,43.43826,-96.68995,1311.6129,NaN,,,161.29355,,1 / 19,55210,2018-06-19 22:50:37:864
-0.730331,-0.359702,9.86344,0.20533,-0.035154,0.074302,40.0,-15.55,16.1,-37.1,961.23,59.81204,43.43826,-96.68995,1311.6129,NaN,,,161.29355,,1 / 19,55310,2018-06-19 22:50:37:964
-0.732876,-0.217348,9.948612,0.07377,0.085754,0.001065,42.0,-15.45,14.85,-37.65,961.16,59.81204,43.43826,-96.68995,1311.6129,NaN,,,161.29355,,1 / 19,55410,2018-06-19 22:50:38:064
-0.602347,0.094154,9.972412,0.24581,0.167779,0.019707,50.0,-15.25,12.75,-38.45,961.26,59.81204,43.43826,-96.68995,1311.6129,NaN,,,161.29355,,1 / 19,55510,2018-06-19 22:50:38:164
-0.768652,0.174088,9.916728,0.1265,-0.173105,-0.144343,52.0,-15.2,12.0,-38.7,961.16,51.44121,43.43826,-96.68995,1311.6129,NaN,,,161.29355,,1 / 19,55610,2018-06-19 22:50:38:264
-0.797691,0.3609,9.85401,-0.139816,-0.21758,-0.160855,50.0,-15.25,10.85,-39.1,961.26,51.44121,43.43826,-96.68995,1311.6129,NaN,,,161.29355,,1 / 19,55709,2018-06-19 22:50:38:363
-0.520168,0.198188,10.109528,-0.223706,0.243413,0.046872,52.0,-15.2,10.6,-39.05,961.22,51.44121,43.43826,-96.68995,1311.6129,NaN,,,161.29355,,1 / 19,55809,2018-06-19 22:50:38:463
-0.747396,0.119003,9.889484,-0.132892,0.009854,-0.133691,50.0,-15.45,10.75,-39.0,961.26,51.44121,43.43826,-96.68995,1311.6129,NaN,,,161.29355,,1 / 19,55909,2018-06-19 22:50:38:563
-0.655936,0.203427,9.90161,0.031425,-0.018908,-0.015713,46.0,-15.3,10.85,-38.85,961.25,51.69797,43.43826,-96.68995,1311.6129,NaN,,,161.29355,,1 / 19,56010,2018-06-19 22:50:38:664
-0.728984,0.258213,9.779314,0.143544,-0.04847,-0.013848,47.0,-15.35,10.8,-38.95,961.16,51.69797,43.43826,-96.68995,1311.6129,NaN,,,161.29355,,1 / 19,56111,2018-06-19 22:50:38:765
-0.767155,0.376767,9.827364,0.321976,-0.120908,-0.245011,53.0,-16.05,11.0,-39.1,961.22,51.69797,43.43826,-96.68995,1311.6129,NaN,,,161.29355,,1 / 19,56210,2018-06-19 22:50:38:864
-0.449066,0.581092,10.043514,0.042877,-0.18003,-0.327569,53.0,-16.3,11.0,-39.0,961.22,51.69797,43.43826,-96.68995,1311.6129,NaN,,,161.29355,,1 / 19,56310,2018-06-19 22:50:38:964
-0.526006,0.806523,9.876462,0.225836,0.095075,-0.041545,50.0,-16.95,10.05,-39.1,961.22,51.73445,43.43826,-96.68995,1311.6129,NaN,,,161.29355,,1 / 19,56410,2018-06-19 22:50:39:064
-0.644111,0.86086,10.049204,0.027164,0.015713,0.029827,52.0,-16.95,9.4,-39.2,961.22,51.73445,43.43826,-96.68995,1311.6129,NaN,,,161.29355,,1 / 19,56510,2018-06-19 22:50:39:164
-0.720003,0.881667,9.817486,-0.254598,-0.106526,-0.038616,51.0,-17.25,8.4,-39.15,961.35,51.73445,43.43826,-96.68995,1311.6129,NaN,,,161.29355,,1 / 19,56609,2018-06-19 22:50:39:263
-0.718356,0.656984,9.886342,-0.074036,0.14674,-0.036752,49.0,-17.25,8.0,-39.35,961.28,51.73445,43.43826,-96.68995,1311.6129,NaN,,,161.29355,,1 / 19,56709,2018-06-19 22:50:39:363
-0.687071,0.655337,9.63741,-0.396811,-0.067644,-0.038083,46.0,-17.2,7.7,-39.6,961.22,48.87787,43.43826,-96.68995,1311.6129,NaN,,,161.29355,,1 / 19,56810,2018-06-19 22:50:39:464
-0.682431,0.09625,9.9787,-0.040214,-0.112119,-0.031692,45.0,-17.45,8.9,-39.25,961.35,48.87787,43.43826,-96.68995,1311.6129,NaN,,,161.29355,,1 / 19,56910,2018-06-19 22:50:39:564
-0.712369,0.106728,10.102192,-0.017577,-0.051665,-0.045007,46.0,-17.5,9.65,-38.95,961.26,48.87787,43.43826,-96.68995,1311.6129,NaN,,,161.29355,,1 / 19,57023,2018-06-19 22:50:39:677
-0.534838,0.230221,10.00744,-0.096939,0.025034,0.056193,45.0,-17.9,10.7,-38.75,961.32,48.15225,43.43826,-96.68995,1311.6129,NaN,,,161.29355,,1 / 19,57109,2018-06-19 22:50:39:763
-0.647853,0.147743,9.908046,0.006924,-0.054595,-0.063916,44.0,-18.15,11.3,-38.65,961.16,48.15225,43.43826,-96.68995,1311.6129,NaN,,,161.29355,,1 / 19,57210,2018-06-19 22:50:39:864
-0.46179,0.134121,9.957144,0.053263,-0.087352,0.028762,45.0,-18.7,12.0,-38.25,961.23,48.15225,43.43826,-96.68995,1311.6129,NaN,,,161.29355,,1 / 19,57310,2018-06-19 22:50:39:964
-0.627495,0.188009,9.801468,0.009055,-0.148338,0.007989,44.0,-18.7,12.05,-38.0,961.23,48.15225,43.43826,-96.68995,1311.6129,NaN,,,161.29355,,1 / 19,57409,2018-06-19 22:50:40:063
-0.599653,0.086969,9.99741,0.052464,-0.067112,-0.155795,45.0,-18.9,11.7,-38.1,961.37,64.20334,43.43826,-96.68995,1311.6129,NaN,,,161.29355,,1 / 19,57510,2018-06-19 22:50:40:164
-0.565374,0.13442,9.85356,0.017311,-0.009587,0.03036,44.0,-19.0,11.55,-38.35,961.29,64.20334,43.43826,-96.68995,1311.6129,NaN,,,161.29355,,1 / 19,57609,2018-06-19 22:50:40:263
-0.704435,-0.001946,9.80027,0.001864,0.011984,-0.017577,43.0,-19.05,11.65,-38.1,961.32,64.20334,43.43826,-96.68995,1311.6129,NaN,,,161.29355,,1 / 19,57709,2018-06-19 22:50:40:363
-0.603695,0.13966,10.09411,0.157393,-0.506001,-0.036219,43.0,-19.1,12.05,-37.75,961.32,64.20334,43.43826,-96.68995,1311.6129,NaN,,,161.29355,,1 / 19,57810,2018-06-19 22:50:40:464
-0.360001,0.238754,10.038426,-0.013582,-0.162719,0.063916,44.0,-19.15,11.9,-37.6,961.26,60.97612,43.43826,-96.68995,1311.6129,NaN,,,161.29355,,1 / 19,57910,2018-06-19 22:50:40:564
-0.131576,0.439636,9.969568,-0.007191,-0.001065,0.378435,44.0,-19.5,11.7,-37.4,961.29,60.97612,43.43826,-96.68995,1311.6129,NaN,,,161.29355,,1 / 19,58010,2018-06-19 22:50:40:664
-0.187261,0.244442,9.95445,0.002397,-0.021572,0.093211,47.0,-19.8,11.85,-37.0,961.29,60.97612,43.43826,-96.68995,1311.6129,NaN,,,161.29355,,1 / 19,58110,2018-06-19 22:50:40:764
-0.137863,-0.122146,9.95939,-0.012251,0.006392,0.018908,47.0,-20.2,12.05,-36.5,961.26,60.97612,43.43826,-96.68995,1311.6129,NaN,,,161.29355,,1 / 19,58210,2018-06-19 22:50:40:864
-0.087718,0.26465,9.942176,0.0,-0.007191,0.011452,16.0,-20.9,12.05,-36.4,961.23,66.88277,43.43826,-96.68995,1311.6129,NaN,,,161.29355,,1 / 19,58309,2018-06-19 22:50:40:963
-0.080682,0.273332,9.943522,-0.003196,-0.008788,0.011984,10.0,-21.2,11.85,-36.05,961.29,66.88277,43.43826,-96.68995,1311.6129,NaN,,,161.29355,,1 / 19,58410,2018-06-19 22:50:41:064
-0.089664,0.276924,9.938134,-0.001864,-0.006392,0.010919,11.0,-21.4,12.55,-35.7,961.2,66.88277,43.43826,-96.68995,1311.6129,NaN,,,161.29355,,1 / 19,58509,2018-06-19 22:50:41:163
-0.089664,0.278271,9.945318,-0.001332,-0.008788,0.010919,11.0,-21.4,12.4,-35.75,961.32,66.88277,43.43826,-96.68995,1311.6129,NaN,,,161.29355,,1 / 19,58610,2018-06-19 22:50:41:264
-0.073647,0.289199,9.945918,-0.001332,-0.009587,0.011718,11.0,-21.5,12.4,-35.75,961.26,47.6249,43.43826,-96.68995,1311.6129,NaN,,,161.29355,,1 / 19,58709,2018-06-19 22:50:41:363
-0.080383,0.282912,9.939182,0.003462,-0.004527,0.010919,13.0,-21.45,12.6,-35.9,961.32,47.6249,43.43826,-96.68995,1311.6129,NaN,,,161.29355,,1 / 19,58810,2018-06-19 22:50:41:464
-0.085921,0.275128,9.938434,0.001065,-0.006924,0.011185,11.0,-21.4,12.8,-35.85,961.29,47.6249,43.43826,-96.68995,1311.6129,NaN,,,161.29355,,1 / 19,58909,2018-06-19 22:50:41:563
-0.089963,0.276176,9.93499,0.001332,-0.009055,0.011185,11.0,-21.15,12.8,-36.0,961.23,47.6249,43.43826,-96.68995,1311.6129,NaN,,,161.29355,,1 / 19,59010,2018-06-19 22:50:41:664
-0.085472,0.284259,9.952354,0.001864,-0.007989,0.012251,13.0,-21.3,12.75,-35.95,961.32,48.93904,43.43826,-96.68995,1311.6129,NaN,,,161.29355,,1 / 19,59110,2018-06-19 22:50:41:764
-0.083227,0.281714,9.938134,-0.009587,0.013582,0.011718,11.0,-20.95,13.05,-35.9,961.26,48.93904,43.43826,-96.68995,1311.6129,NaN,,,161.29355,,1 / 19,59209,2018-06-19 22:50:41:863
-0.084275,0.281864,9.952354,-0.004527,-7.99E-4,0.011452,11.0,-21.0,13.2,-35.85,961.2,48.93904,43.43826,-96.68995,1311.6129,NaN,,,161.29355,,1 / 19,59309,2018-06-19 22:50:41:963
-0.242496,0.268841,9.937236,-0.006392,0.007723,0.334493,11.0,-21.1,12.85,-35.6,961.29,48.1194,43.43826,-96.68995,1311.6129,NaN,,,161.29355,,1 / 19,59409,2018-06-19 22:50:42:063
0.013322,0.347577,9.937086,-0.005326,0.009055,0.639159,12.0,-21.1,13.1,-35.4,961.17,48.1194,43.43826,-96.68995,1311.6129,NaN,,,161.29355,,1 / 19,59509,2018-06-19 22:50:42:163
-0.071252,0.298779,9.945168,-0.001332,-2.66E-4,0.413589,11.0,-21.0,13.45,-35.35,961.29,48.1194,43.43826,-96.68995,1311.6129,NaN,,,161.29355,,1 / 19,59610,2018-06-19 22:50:42:264
-0.073946,0.291743,9.942026,-2.66E-4,0.001065,0.550742,13.0,-20.6,14.5,-35.45,961.29,48.1194,43.43826,-96.68995,1311.6129,NaN,,,161.29355,,1 / 19,59710,2018-06-19 22:50:42:364
-0.390238,0.208666,9.941128,-0.006924,0.01012,0.496413,12.0,-20.35,15.25,-35.45,961.29,50.50882,43.43826,-96.68995,1311.6129,NaN,,,161.29355,,1 / 19,59810,2018-06-19 22:50:42:464
-0.027692,0.324525,9.943672,0.001065,0.0,0.612793,11.0,-19.1,17.05,-35.15,961.29,50.50882,43.43826,-96.68995,1311.6129,NaN,,,161.29355,,1 / 19,59910,2018-06-19 22:50:42:564
-0.14445,0.248783,9.950708,-0.007457,0.010653,0.54222,11.0,-18.05,19.6,-35.1,961.23,50.50882,43.43826,-96.68995,1311.6129,NaN,,,161.29355,,1 / 19,60047,2018-06-19 22:50:42:701
-0.070204,0.326022,9.939032,-0.005859,0.015446,0.690025,12.0,-17.45,20.2,-35.45,961.32,49.79021,43.43826,-96.68995,1311.6129,NaN,,,161.29355,,1 / 19,60110,2018-06-19 22:50:42:764
-0.121996,0.232916,9.941876,-0.006125,0.011185,0.539556,12.0,-16.6,21.2,-35.4,961.26,49.79021,43.43826,-96.68995,1311.6129,NaN,,,161.29355,,1 / 19,60209,2018-06-19 22:50:42:863
-0.103585,0.234712,9.945318,-0.001065,2.66E-4,0.600809,16.0,-15.65,22.0,-35.2,961.2,49.79021,43.43826,-96.68995,1311.6129,NaN,,,161.29355,,1 / 19,60309,2018-06-19 22:50:42:963
-0.178878,0.258812,9.94068,-0.002663,0.001598,0.42291,18.0,-14.0,23.7,-35.6,961.32,49.79021,43.43826,-96.68995,1311.6129,NaN,,,161.29355,,1 / 19,60410,2018-06-19 22:50:43:064
-0.089813,0.304766,9.9549,-0.005326,0.014115,0.518784,24.0,-13.15,24.45,-35.8,961.17,51.05445,43.43826,-96.68995,1311.6129,NaN,,,161.29355,,1 / 19,60510,2018-06-19 22:50:43:164
-0.087119,0.260009,9.94487,0.002929,-0.015446,0.346744,25.0,-11.2,25.05,-36.2,961.26,51.05445,43.43826,-96.68995,1311.6129,NaN,,,161.29355,,1 / 19,60609,2018-06-19 22:50:43:263
-0.12499,0.300874,9.94996,-0.013316,0.024501,0.369913,28.0,-10.3,25.35,-36.6,961.2,51.05445,43.43826,-96.68995,1311.6129,NaN,,,161.29355,,1 / 19,60710,2018-06-19 22:50:43:364
-0.199236,0.267045,9.936788,-0.013582,0.007989,0.336091,26.0,-8.95,26.7,-36.5,961.2,51.05445,43.43826,-96.68995,1311.6129,NaN,,,161.29355,,1 / 19,60810,2018-06-19 22:50:43:464
-0.162861,0.224084,9.957744,-0.005326,0.004261,0.323308,29.0,-8.2,27.0,-36.55,961.26,51.50666,43.43826,-96.68995,1311.6129,NaN,,,161.29355,,1 / 19,60909,2018-06-19 22:50:43:563
-0.123793,0.257165,9.942624,-0.012251,0.012251,0.297209,29.0,-7.4,27.2,-36.7,961.26,51.50666,43.43826,-96.68995,1311.6129,NaN,,,161.29355,,1 / 19,61009,2018-06-19 22:50:43:663
-0.151934,0.178579,9.943522,0.004527,-0.022637,0.264985,27.0,-6.05,27.95,-36.85,961.29,51.50666,43.43826,-96.68995,1311.6129,NaN,,,161.29355,,1 / 19,61111,2018-06-19 22:50:43:765
-0.128732,0.242346,9.956246,-0.003728,-0.002663,0.352336,24.0,-5.45,28.2,-36.9,961.23,51.50666,43.43826,-96.68995,1311.6129,NaN,,,161.29355,,1 / 19,61210,2018-06-19 22:50:43:864
-0.277972,0.210462,9.937534,-0.006392,-0.003728,0.246342,19.0,-3.95,28.45,-37.45,961.23,51.99024,43.43826,-96.68995,1311.6129,NaN,,,161.29355,,1 / 19,61309,2018-06-19 22:50:43:963
-0.179626,0.237855,9.956396,-0.026099,0.018642,0.249272,19.0,-3.3,28.25,-37.55,961.32,51.99024,43.43826,-96.68995,1311.6129,NaN,,,161.29355,,1 / 19,61410,2018-06-19 22:50:44:064
-0.150587,0.247585,9.941576,-0.00506,-0.003196,0.335558,13.0,-1.95,28.5,-37.5,961.2,51.99024,43.43826,-96.68995,1311.6129,NaN,,,161.29355,,1 / 19,61510,2018-06-19 22:50:44:164
-0.191152,0.177381,9.97421,-0.004261,-0.003995,0.309459,12.0,-1.15,28.45,-37.55,961.26,53.25713,43.43826,-96.68995,1311.6129,NaN,,,161.29355,,1 / 19,61610,2018-06-19 22:50:44:264
-0.152383,0.154179,9.97361,-0.001864,-0.006658,0.300138,11.0,-0.55,28.15,-37.5,961.26,53.25713,43.43826,-96.68995,1311.6129,NaN,,,161.29355,,1 / 19,61709,2018-06-19 22:50:44:363
-0.145348,0.206121,9.950258,-0.043143,0.025833,0.299339,8.0,0.55,28.6,-36.7,961.26,53.25713,43.43826,-96.68995,1311.6129,NaN,,,161.29355,,1 / 19,61809,2018-06-19 22:50:44:463
-0.163161,0.246238,9.958642,-0.039947,0.026365,0.292149,8.0,1.05,28.5,-36.35,961.23,53.25713,43.43826,-96.68995,1311.6129,NaN,,,161.29355,,1 / 19,61910,2018-06-19 22:50:44:564
-0.197589,0.174088,9.931548,-0.023968,0.015979,0.385892,8.0,2.4,28.9,-35.65,961.33,52.85051,43.43826,-96.68995,1311.6129,NaN,,,161.29355,,1 / 19,62010,2018-06-19 22:50:44:664
-0.279319,0.12484,9.94966,-0.009321,0.01012,0.41279,8.0,3.35,29.15,-35.25,961.26,52.85051,43.43826,-96.68995,1311.6129,NaN,,,161.29355,,1 / 19,62109,2018-06-19 22:50:44:763
-0.293839,-0.027543,9.922566,0.013316,-0.023702,0.267115,8.0,5.55,29.3,-34.5,961.33,52.85051,43.43826,-96.68995,1311.6129,NaN,,,161.29355,,1 / 19,62210,2018-06-19 22:50:44:864
-0.303269,0.075593,9.958342,-0.005593,-0.002131,0.413323,8.0,7.0,28.95,-34.45,961.3,53.56424,43.43826,-96.68995,1311.6129,NaN,,,161.29355,,1 / 19,62310,2018-06-19 22:50:44:964
-0.382155,0.074994,9.950858,-0.005326,-0.001598,0.364853,6.0,8.3,28.9,-34.15,961.24,53.56424,43.43826,-96.68995,1311.6129,NaN,,,161.29355,,1 / 19,62409,2018-06-19 22:50:45:063
-0.271835,0.217348,9.943224,-0.012783,-0.003462,0.504136,5.0,11.0,28.35,-33.95,961.23,53.56424,43.43826,-96.68995,1311.6129,NaN,,,161.29355,,1 / 19,62509,2018-06-19 22:50:45:163
-0.199385,0.207918,9.94472,5.33E-4,-0.010919,0.425041,4.0,12.6,28.0,-33.85,961.26,53.56424,43.43826,-96.68995,1311.6129,NaN,,,161.29355,,1 / 19,62610,2018-06-19 22:50:45:264
-0.125739,0.064965,9.95939,-0.004794,0.008522,0.347543,4.0,14.7,28.25,-33.7,961.17,53.04753,43.43826,-96.68995,1311.6129,NaN,,,161.29355,,1 / 19,62710,2018-06-19 22:50:45:364
-0.259411,0.05284,9.951306,-0.006125,-0.006392,0.238886,4.0,15.7,28.5,-33.6,961.2,53.04753,43.43826,-96.68995,1311.6129,NaN,,,161.29355,,1 / 19,62809,2018-06-19 22:50:45:463
-0.13457,0.186961,9.942924,0.002397,-0.021039,0.408529,3.0,17.35,29.05,-33.65,961.26,53.04753,43.43826,-96.68995,1311.6129,NaN,,,161.29355,,1 / 19,62909,2018-06-19 22:50:45:563
-0.345631,0.238604,9.92137,0.014381,-0.023968,0.447944,3.0,18.4,28.9,-33.65,961.26,53.04753,43.43826,-96.68995,1311.6129,NaN,,,161.29355,,1 / 19,63010,2018-06-19 22:50:45:664
-0.186362,0.076042,9.95924,-0.003728,-0.006924,0.528105,0.0,19.4,29.15,-33.3,961.26,51.08489,43.43826,-96.68995,1311.6129,NaN,,,161.29355,,1 / 19,63109,2018-06-19 22:50:45:763
-0.294737,0.22618,9.94008,0.030626,-0.043942,0.48363,3.0,21.15,27.95,-33.3,961.26,51.08489,43.43826,-96.68995,1311.6129,NaN,,,161.29355,,1 / 19,63209,2018-06-19 22:50:45:863
-0.330962,0.233814,9.997112,-0.032757,0.026099,0.392017,3.0,22.45,27.25,-33.35,961.23,51.08489,43.43826,-96.68995,1311.6129,NaN,,,161.29355,,1 / 19,63310,2018-06-19 22:50:45:964
-0.169148,0.127535,9.95011,0.014381,-0.03329,0.409328,3.0,24.8,24.7,-33.5,961.23,51.08489,43.43826,-96.68995,1311.6129,NaN,,,161.29355,,1 / 19,63410,2018-06-19 22:50:46:064
-0.159718,0.197889,9.979298,-0.045274,0.06871,0.353401,3.0,25.8,23.65,-33.55,961.17,49.00189,43.43826,-96.68995,1311.6129,NaN,,,161.29355,,1 / 19,63510,2018-06-19 22:50:46:164
-0.103585,0.227227,9.957744,-7.99E-4,-0.006392,0.476173,3.0,27.65,20.8,-34.05,961.29,49.00189,43.43826,-96.68995,1311.6129,NaN,,,161.29355,,1 / 19,63610,2018-06-19 22:50:46:264
-0.176932,0.225282,9.953402,-0.003995,-0.004527,0.381631,3.0,28.55,19.55,-34.2,961.28,49.00189,43.43826,-96.68995,1311.6129,NaN,,,161.29355,,1 / 19,63710,2018-06-19 22:50:46:364
-0.18292,0.258363,9.946068,0.005326,-0.018376,0.446878,0.0,28.95,18.9,-34.35,961.28,51.47537,43.43826,-96.68995,1311.6129,NaN,,,161.29355,,1 / 19,63809,2018-06-19 22:50:46:463
-0.104632,0.168999,9.946666,0.011984,-0.024501,0.247141,4.0,29.8,17.55,-34.25,961.25,51.47537,43.43826,-96.68995,1311.6129,NaN,,,161.29355,,1 / 19,63909,2018-06-19 22:50:46:563
-0.15882,0.228724,9.943972,-0.003462,-0.002131,0.180562,4.0,30.2,16.9,-34.35,961.28,51.47537,43.43826,-96.68995,1311.6129,NaN,,,161.29355,,1 / 19,64009,2018-06-19 22:50:46:663
-0.123194,0.219893,9.941278,-7.99E-4,-0.017577,0.342216,4.0,31.1,15.55,-34.5,961.31,51.47537,43.43826,-96.68995,1311.6129,NaN,,,161.29355,,1 / 19,64109,2018-06-19 22:50:46:763
-0.017963,0.213905,9.956696,-0.001065,-0.01518,0.376571,5.0,31.65,14.5,-34.6,961.22,51.0615,43.43826,-96.68995,1311.6129,NaN,,,161.29355,,1 / 19,64210,2018-06-19 22:50:46:864
-0.066013,0.256417,9.95475,0.00506,-0.007989,0.42797,4.0,32.6,12.55,-34.3,961.28,51.0615,43.43826,-96.68995,1311.6129,NaN,,,161.29355,,1 / 19,64310,2018-06-19 22:50:46:964
-0.034578,0.260758,9.955948,-0.007191,0.005326,0.480701,4.0,33.1,11.3,-34.45,961.22,51.0615,43.43826,-96.68995,1311.6129,NaN,,,161.29355,,1 / 19,64410,2018-06-19 22:50:47:064
-0.022154,0.224234,9.946516,-0.003995,0.005593,0.491353,4.0,33.55,9.8,-34.4,961.28,51.0615,43.43826,-96.68995,1311.6129,NaN,,,161.29355,,1 / 19,64509,2018-06-19 22:50:47:163
-0.107776,0.27423,9.95954,-0.003196,0.004794,0.495881,4.0,34.4,7.1,-34.35,961.15,49.80205,43.43826,-96.68995,1311.6129,NaN,,,161.29355,,1 / 19,64609,2018-06-19 22:50:47:263
-0.135019,0.24504,9.94951,-0.001598,0.00506,0.462857,0.0,34.45,6.25,-34.35,961.18,49.80205,43.43826,-96.68995,1311.6129,NaN,,,161.29355,,1 / 19,64710,2018-06-19 22:50:47:364
-0.074395,0.278421,9.939332,-7.99E-4,0.004527,0.459928,4.0,34.5,4.15,-34.6,961.15,49.80205,43.43826,-96.68995,1311.6129,NaN,,,161.29355,,1 / 19,64810,2018-06-19 22:50:47:464
-5.99E-4,0.25507,9.939332,-0.003196,0.004527,0.50893,6.0,34.65,2.85,-34.65,961.27,51.11284,43.43826,-96.68995,1311.6129,NaN,,,161.29355,,1 / 19,64909,2018-06-19 22:50:47:563
-0.069755,0.210762,9.948462,-0.001598,0.003995,0.509463,5.0,34.55,0.45,-34.75,961.27,51.11284,43.43826,-96.68995,1311.6129,NaN,,,161.29355,,1 / 19,65009,2018-06-19 22:50:47:663
-0.084724,0.12978,9.936038,-0.001065,0.004794,0.405599,5.0,34.7,-0.65,-34.75,961.21,51.11284,43.43826,-96.68995,1311.6129,NaN,,,161.29355,,1 / 19,65109,2018-06-19 22:50:47:763
-0.061522,0.182021,9.927806,0.001065,0.003196,0.378968,5.0,34.5,-1.6,-34.75,961.21,51.11284,43.43826,-96.68995,1311.6129,NaN,,,161.29355,,1 / 19,65210,2018-06-19 22:50:47:864
-0.054337,0.223635,9.94906,-0.002397,5.33E-4,0.35713,4.0,34.1,-3.25,-34.7,961.27,50.32007,43.43826,-96.68995,1311.6129,NaN,,,161.29355,,1 / 19,65310,2018-06-19 22:50:47:964
-0.044008,0.235011,9.942326,-0.003462,-0.001065,0.353135,5.0,33.8,-3.6,-34.5,961.21,50.32007,43.43826,-96.68995,1311.6129,NaN,,,161.29355,,1 / 19,65410,2018-06-19 22:50:48:064
-0.040715,0.223186,9.94053,-0.003995,-0.001065,0.340086,1.0,33.0,-4.55,-34.65,961.21,50.32007,43.43826,-96.68995,1311.6129,NaN,,,161.29355,,1 / 19,65509,2018-06-19 22:50:48:163
-0.007035,0.276026,9.947266,-0.001332,0.0,0.358461,5.0,32.65,-5.05,-34.65,961.18,50.32007,43.43826,-96.68995,1311.6129,NaN,,,161.29355,,1 / 19,65610,2018-06-19 22:50:48:264
-0.013622,0.235909,9.944272,-0.022637,0.016512,0.416252,5.0,32.0,-6.45,-34.6,961.18,50.37006,43.43826,-96.68995,1311.6129,NaN,,,161.29355,,1 / 19,65710,2018-06-19 22:50:48:364
-0.105531,0.195793,9.92092,0.022637,-0.010919,0.457797,5.0,32.0,-7.65,-34.55,961.21,50.37006,43.43826,-96.68995,1311.6129,NaN,,,161.29355,,1 / 19,65810,2018-06-19 22:50:48:464
-0.18741,0.167202,9.94951,-0.006125,5.33E-4,0.426638,6.0,31.6,-8.75,-34.5,961.24,50.37006,43.43826,-96.68995,1311.6129,NaN,,,161.29355,,1 / 19,65909,2018-06-19 22:50:48:563
-0.078287,0.253722,9.953852,-0.019175,-0.031958,0.41279,6.0,31.25,-11.5,-34.5,961.24,50.37006,43.43826,-96.68995,1311.6129,NaN,,,161.29355,,1 / 19,66009,2018-06-19 22:50:48:663
0.02425,0.237406,9.960886,0.011984,-0.007191,0.307329,5.0,31.2,-13.0,-34.65,961.27,50.37207,43.43826,-96.68995,1311.6129,NaN,,,161.29355,,1 / 19,66109,2018-06-19 22:50:48:763
-0.090113,0.24983,9.965228,-0.006125,-7.99E-4,0.458863,6.0,30.75,-15.3,-34.65,961.21,50.37207,43.43826,-96.68995,1311.6129,NaN,,,161.29355,,1 / 19,66209,2018-06-19 22:50:48:863
0.034578,0.145797,9.955198,-0.005859,0.002397,0.486027,6.0,30.1,-15.55,-34.5,961.2,50.37207,43.43826,-96.68995,1311.6129,NaN,,,161.29355,,1 / 19,66310,2018-06-19 22:50:48:964
-0.002844,0.186812,9.958642,-0.014381,0.003196,0.415719,7.0,29.25,-17.45,-35.0,961.33,50.06093,43.43826,-96.68995,1311.6129,NaN,,,161.29355,,1 / 19,66410,2018-06-19 22:50:49:064
-0.179177,0.183967,9.939182,-5.33E-4,-0.003728,0.401072,6.0,28.8,-18.2,-35.35,961.24,50.06093,43.43826,-96.68995,1311.6129,NaN,,,161.29355,,1 / 19,66509,2018-06-19 22:50:49:163
0.011227,0.092358,9.971514,-0.003462,-0.001065,0.406665,6.0,28.35,-18.65,-35.05,961.21,50.06093,43.43826,-96.68995,1311.6129,NaN,,,161.29355,,1 / 19,66609,2018-06-19 22:50:49:263
-0.010478,0.202828,9.956696,-0.027963,0.02024,0.377903,6.0,27.6,-19.75,-34.8,961.24,50.06093,43.43826,-96.68995,1311.6129,NaN,,,161.29355,,1 / 19,66710,2018-06-19 22:50:49:364
-0.068557,0.214354,9.9543,-5.33E-4,7.99E-4,0.384294,7.0,27.0,-20.45,-34.75,961.3,51.76673,43.43826,-96.68995,1311.6129,NaN,,,161.29355,,1 / 18,66809,2018-06-19 22:50:49:463
-0.0479,0.197889,9.955648,0.035686,-0.016778,0.480434,7.0,25.85,-21.3,-34.65,961.27,51.76673,43.43826,-96.68995,1311.6129,NaN,,,161.29355,,1 / 18,66910,2018-06-19 22:50:49:564
-0.224234,0.248334,9.969718,-0.00506,0.011984,0.390419,7.0,25.6,-21.8,-34.5,961.3,51.76673,43.43826,-96.68995,1311.6129,NaN,,,161.29355,,1 / 18,67010,2018-06-19 22:50:49:664
-0.087269,0.287702,9.96403,-2.66E-4,2.66E-4,0.401072,1.0,24.4,-22.9,-34.6,961.27,51.76673,43.43826,-96.68995,1311.6129,NaN,,,161.29355,,1 / 18,67109,2018-06-19 22:50:49:763
-0.061821,0.203876,9.957294,-0.003462,0.008788,0.461526,13.0,23.85,-23.15,-34.8,961.18,49.12693,43.43826,-96.68995,1311.6129,NaN,,,161.29355,,1 / 18,67210,2018-06-19 22:50:49:864
0.022603,0.224533,9.9546,0.007191,5.33E-4,0.541421,9.0,23.3,-23.5,-34.8,961.18,49.12693,43.43826,-96.68995,1311.6129,NaN,,,161.29355,,1 / 18,67309,2018-06-19 22:50:49:963
-0.169298,0.032033,10.01238,-0.150202,0.11638,0.503071,11.0,22.25,-24.05,-35.0,961.27,49.12693,43.43826,-96.68995,1311.6129,NaN,,,161.29355,,1 / 18,67410,2018-06-19 22:50:50:064
